"Time (s)","Acceleration x (m/s^2)","Acceleration y (m/s^2)","Acceleration z (m/s^2)","Absolute acceleration (m/s^2)"
1.037528640E-2,3.000000000E-2,9.770000000E0,1.000000000E-2,9.770051177E0
2.156692780E-2,2.000000000E-2,9.740000000E0,1.600000000E-1,9.741334611E0
3.239398487E-2,7.000000000E-2,9.900000000E0,1.300000000E-1,9.901100949E0
4.156960644E-2,-7.000000000E-2,9.930000000E0,9.000000000E-2,9.930654561E0
5.097010530E-2,-4.000000000E-2,9.940000000E0,-2.400000000E-1,9.942977421E0
6.209076563E-2,-9.000000000E-2,9.690000000E0,-3.000000000E-2,9.690464385E0
7.060656155E-2,-7.000000000E-2,9.700000000E0,-1.300000000E-1,9.701123646E0
8.157024680E-2,-1.100000000E-1,9.800000000E0,1.000000000E-2,9.800622429E0
9.246145509E-2,1.400000000E-1,9.970000000E0,-1.700000000E-1,9.972432000E0
1.023652599E-1,1.400000000E-1,9.850000000E0,-1.800000000E-1,9.852639240E0
1.117743572E-1,-5.000000000E-2,9.850000000E0,2.300000000E-1,9.852811781E0
1.211096341E-1,7.000000000E-2,9.750000000E0,1.900000000E-1,9.752102337E0
1.303742428E-1,-0.000000000E0,9.980000000E0,-2.000000000E-1,9.982003807E0
1.402094717E-1,-8.000000000E-2,9.700000000E0,1.600000000E-1,9.701649344E0
1.502231165E-1,-5.000000000E-2,9.830000000E0,-2.200000000E-1,9.832588672E0
1.603836086E-1,1.600000000E-1,9.870000000E0,-8.000000000E-2,9.871620941E0
1.718701094E-1,-6.000000000E-2,9.920000000E0,2.500000000E-1,9.923331094E0
1.827480952E-1,3.000000000E-2,9.920000000E0,2.200000000E-1,9.922484568E0
1.931146329E-1,1.600000000E-1,9.770000000E0,-2.000000000E-2,9.771330513E0
2.045815133E-1,-7.000000000E-2,9.730000000E0,1.000000000E-1,9.730765643E0
2.137274394E-1,1.100000000E-1,9.980000000E0,-6.000000000E-2,9.980786542E0
2.227080755E-1,-1.400000000E-1,9.830000000E0,1.700000000E-1,9.832466628E0
2.330456943E-1,8.000000000E-2,9.730000000E0,-9.000000000E-2,9.730745090E0
2.416775204E-1,1.100000000E-1,9.680000000E0,-1.500000000E-1,9.681787025E0
2.502845612E-1,1.200000000E-1,9.920000000E0,-1.800000000E-1,9.922358591E0
2.603292276E-1,1.700000000E-1,9.930000000E0,7.000000000E-2,9.931701768E0
2.702278457E-1,7.000000000E-2,9.830000000E0,3.000000000E-2,9.830295011E0
2.814793490E-1,1.700000000E-1,9.770000000E0,2.000000000E-1,9.773525464E0
2.918670278E-1,-8.000000000E-2,9.870000000E0,-1.800000000E-1,9.871965357E0
3.019093807E-1,1.000000000E-2,9.980000000E0,1.500000000E-1,9.981132200E0
3.119000011E-1,-1.000000000E-1,9.840000000E0,2.200000000E-1,9.842967032E0
3.211425458E-1,-1.500000000E-1,9.910000000E0,1.200000000E-1,9.911861581E0
3.296779279E-1,-2.000000000E-2,9.940000000E0,-1.900000000E-1,9.941835847E0
3.387551343E-1,8.000000000E-2,9.900000000E0,-1.700000000E-1,9.901782668E0
3.493312307E-1,1.000000000E-1,9.810000000E0,-2.100000000E-1,9.812757003E0
3.584330509E-1,-1.700000000E-1,9.700000000E0,-8.000000000E-2,9.701819417E0
3.680416598E-1,1.500000000E-1,9.880000000E0,1.300000000E-1,9.881993726E0
3.765528625E-1,-9.000000000E-2,9.930000000E0,-1.800000000E-1,9.932039066E0
3.875430057E-1,-7.000000000E-2,9.970000000E0,-3.000000000E-2,9.970290868E0
3.965063890E-1,1.200000000E-1,9.690000000E0,-2.300000000E-1,9.693472030E0
4.058091869E-1,1.400000000E-1,9.670000000E0,9.000000000E-2,9.671432159E0
4.169501833E-1,8.000000000E-2,9.860000000E0,-2.000000000E-1,9.862352660E0
4.269795558E-1,-6.000000000E-2,9.920000000E0,1.500000000E-1,9.921315437E0
4.380210065E-1,-1.000000000E-2,9.660000000E0,6.000000000E-2,9.660191509E0
4.484401580E-1,1.200000000E-1,9.850000000E0,-1.500000000E-1,9.851872918E0
4.591654708E-1,-5.000000000E-2,9.730000000E0,1.000000000E-1,9.730642322E0
4.679399577E-1,1.100000000E-1,9.980000000E0,-8.000000000E-2,9.980926811E0
4.780633891E-1,1.000000000E-1,9.760000000E0,1.000000000E-2,9.760517404E0
4.880867058E-1,-1.000000000E-2,9.660000000E0,3.000000000E-2,9.660051760E0
4.992007240E-1,1.400000000E-1,9.910000000E0,-1.100000000E-1,9.911599266E0
5.087845161E-1,-4.000000000E-2,9.740000000E0,-4.000000000E-2,9.740164270E0
5.190790683E-1,9.000000000E-2,9.780000000E0,1.400000000E-1,9.781416053E0
5.277568233E-1,5.000000000E-2,9.680000000E0,1.800000000E-1,9.681802518E0
5.374197187E-1,-6.000000000E-2,9.750000000E0,1.700000000E-1,9.751666524E0
5.468888277E-1,1.000000000E-2,9.680000000E0,3.000000000E-2,9.680051653E0
5.558394269E-1,4.000000000E-2,9.730000000E0,1.900000000E-1,9.731937114E0
5.667884412E-1,1.000000000E-2,9.840000000E0,-1.800000000E-1,9.841651284E0
5.764267797E-1,-1.400000000E-1,9.740000000E0,2.400000000E-1,9.743962233E0
5.878630234E-1,1.700000000E-1,9.870000000E0,-2.300000000E-1,9.874143001E0
5.981329985E-1,1.600000000E-1,9.950000000E0,2.000000000E-1,9.953295937E0
6.084481672E-1,-1.600000000E-1,9.840000000E0,1.500000000E-1,9.842443802E0
6.188621570E-1,1.600000000E-1,9.650000000E0,-5.000000000E-2,9.651455849E0
6.293915077E-1,1.000000000E-2,9.970000000E0,1.500000000E-1,9.971133336E0
6.383438717E-1,-1.300000000E-1,9.700000000E0,2.300000000E-1,9.703597271E0
6.481648121E-1,1.100000000E-1,9.760000000E0,-1.700000000E-1,9.762100184E0
6.573835040E-1,-2.000000000E-2,9.820000000E0,7.000000000E-2,9.820269854E0
6.670909989E-1,7.000000000E-2,9.850000000E0,-2.500000000E-1,9.853420726E0
6.758811112E-1,1.100000000E-1,9.750000000E0,8.000000000E-2,9.750948672E0
6.872845954E-1,1.000000000E-2,9.790000000E0,-2.200000000E-1,9.792476704E0
6.964296075E-1,-1.600000000E-1,9.850000000E0,8.000000000E-2,9.851624232E0
7.069449030E-1,1.100000000E-1,9.790000000E0,-2.400000000E-1,9.793559108E0
7.163461632E-1,7.000000000E-2,9.730000000E0,-5.000000000E-2,9.730380260E0
7.274683943E-1,1.400000000E-1,9.780000000E0,1.800000000E-1,9.782658125E0
7.379550385E-1,-8.000000000E-2,9.770000000E0,-1.000000000E-1,9.770839268E0
7.468498859E-1,1.000000000E-1,9.740000000E0,2.300000000E-1,9.743228418E0
7.578851089E-1,1.300000000E-1,9.850000000E0,-1.000000000E-2,9.850862906E0
7.692199534E-1,-5.000000000E-2,9.810000000E0,-1.600000000E-1,9.811432107E0
7.804317038E-1,-3.000000000E-2,9.780000000E0,2.200000000E-1,9.782520125E0
7.906408612E-1,-6.000000000E-2,9.880000000E0,-1.700000000E-1,9.881644600E0
7.995772411E-1,-1.700000000E-1,9.920000000E0,5.000000000E-2,9.921582535E0
8.086546316E-1,-9.000000000E-2,9.860000000E0,2.200000000E-1,9.862864695E0
8.199383486E-1,-6.000000000E-2,9.750000000E0,2.200000000E-1,9.752666302E0
8.300953281E-1,-1.400000000E-1,9.960000000E0,3.000000000E-2,9.961029063E0
8.391369856E-1,9.000000000E-2,9.670000000E0,-1.400000000E-1,9.671432159E0
8.502891563E-1,-3.000000000E-2,9.920000000E0,0.000000000E0,9.920045363E0
8.607138714E-1,2.000000000E-2,9.780000000E0,-1.000000000E-1,9.780531683E0
8.709229542E-1,-8.000000000E-2,9.770000000E0,-9.000000000E-2,9.770742039E0
8.805518177E-1,-5.000000000E-2,9.930000000E0,-9.000000000E-2,9.930533722E0
8.902846836E-1,9.000000000E-2,9.860000000E0,-1.500000000E-1,9.861551602E0
8.995031512E-1,-1.000000000E-2,9.980000000E0,-2.300000000E-1,9.982654957E0
9.081173231E-1,3.000000000E-2,9.940000000E0,1.300000000E-1,9.940895332E0
9.192459795E-1,-3.000000000E-2,9.680000000E0,-2.400000000E-1,9.683021223E0
9.291491701E-1,2.000000000E-2,9.810000000E0,4.000000000E-2,9.810101936E0
9.392920757E-1,1.400000000E-1,9.900000000E0,-7.000000000E-2,9.901237296E0
9.487585657E-1,-8.000000000E-2,9.660000000E0,8.000000000E-2,9.660662503E0
9.595125404E-1,1.000000000E-2,9.820000000E0,4.000000000E-2,9.820086558E0
9.680881310E-1,7.000000000E-2,9.980000000E0,-1.000000000E-2,9.980250498E0
9.777046869E-1,-1.400000000E-1,9.720000000E0,1.400000000E-1,9.722016252E0
9.862957377E-1,1.600000000E-1,9.680000000E0,4.000000000E-2,9.681404857E0
9.951644140E-1,-0.000000000E0,9.740000000E0,2.000000000E-1,9.742053172E0
1.006565859E0,-9.000000000E-2,9.760000000E0,4.000000000E-2,9.760496914E0
1.017039141E0,9.000000000E-2,9.740000000E0,1.900000000E-1,9.742268730E0
1.026823802E0,1.100000000E-1,9.790000000E0,1.800000000E-1,9.792272464E0
1.036895022E0,5.000000000E-2,9.930000000E0,1.000000000E-1,9.930629386E0
1.048013450E0,1.500000000E-1,9.820000000E0,-9.000000000E-2,9.821557921E0
1.057546082E0,-1.400000000E-1,9.840000000E0,-1.000000000E-2,9.841000965E0
1.067816955E0,1.000000000E-2,9.670000000E0,-2.100000000E-1,9.672285149E0
1.078368008E0,9.000000000E-2,9.660000000E0,1.100000000E-1,9.661045492E0
1.087934249E0,1.500000000E-1,9.970000000E0,7.000000000E-2,9.971374028E0
1.097991544E0,5.000000000E-2,9.760000000E0,1.600000000E-1,9.761439443E0
1.108787287E0,4.000000000E-2,9.970000000E0,-2.100000000E-1,9.972291612E0
1.120014825E0,-4.000000000E-2,9.750000000E0,-1.900000000E-1,9.751933142E0
1.128968011E0,3.000000000E-2,9.860000000E0,7.000000000E-2,9.860294113E0
1.140268270E0,2.000000000E-2,9.870000000E0,1.200000000E-1,9.870749718E0
1.148783806E0,1.400000000E-1,9.670000000E0,-2.100000000E-1,9.673293131E0
1.159542739E0,1.100000000E-1,9.660000000E0,-2.300000000E-1,9.663363804E0
1.170474319E0,8.000000000E-2,9.790000000E0,-9.000000000E-2,9.790740524E0
1.179384611E0,1.500000000E-1,9.680000000E0,-8.000000000E-2,9.681492654E0
1.189141322E0,-1.500000000E-1,9.740000000E0,-2.200000000E-1,9.743638951E0
1.200087091E0,9.000000000E-2,9.700000000E0,-2.000000000E-1,9.702479065E0
1.208629905E0,-1.000000000E-2,9.740000000E0,-1.500000000E-1,9.741160095E0
1.219015291E0,9.000000000E-2,9.790000000E0,-2.400000000E-1,9.793354890E0
1.229894362E0,-7.000000000E-2,9.740000000E0,-1.800000000E-1,9.741914596E0
1.239933372E0,-1.000000000E-2,9.750000000E0,-2.400000000E-1,9.752958525E0
1.250610921E0,1.100000000E-1,9.810000000E0,-7.000000000E-2,9.810866425E0
1.259790191E0,-1.600000000E-1,9.870000000E0,1.200000000E-1,9.872026134E0
1.268885754E0,-7.000000000E-2,9.650000000E0,8.000000000E-2,9.650585474E0
1.278475135E0,-0.000000000E0,9.980000000E0,5.000000000E-2,9.980125250E0
1.287513353E0,1.200000000E-1,9.790000000E0,-2.000000000E-2,9.790755844E0
1.297051538E0,-8.000000000E-2,9.960000000E0,-1.600000000E-1,9.961606296E0
1.308395910E0,1.100000000E-1,9.640000000E0,-2.300000000E-1,9.643370780E0
1.318615908E0,-9.000000000E-2,9.660000000E0,-1.600000000E-1,9.661744149E0
1.328136112E0,-7.000000000E-2,9.670000000E0,2.200000000E-1,9.672755554E0
1.337450686E0,2.000000000E-2,9.950000000E0,1.600000000E-1,9.951306447E0
1.348806805E0,5.000000000E-2,9.780000000E0,3.000000000E-2,9.780173823E0
1.358640239E0,1.300000000E-1,9.930000000E0,6.000000000E-2,9.931032172E0
1.370081423E0,1.300000000E-1,9.880000000E0,1.200000000E-1,9.881583881E0
1.380127991E0,-9.000000000E-2,9.670000000E0,1.600000000E-1,9.671742346E0
1.390191490E0,9.000000000E-2,9.760000000E0,-1.300000000E-1,9.761280654E0
1.401381111E0,5.000000000E-2,9.750000000E0,1.500000000E-1,9.751281967E0
1.412109414E0,-4.000000000E-2,9.790000000E0,7.000000000E-2,9.790331966E0
1.422351372E0,1.000000000E-1,9.900000000E0,-1.100000000E-1,9.901116099E0
1.432131321E0,1.400000000E-1,9.660000000E0,-1.100000000E-1,9.661640647E0
1.443265884E0,-1.000000000E-2,9.960000000E0,-1.600000000E-1,9.961290077E0
1.453000823E0,1.500000000E-1,9.800000000E0,2.000000000E-2,9.801168298E0
1.464269102E0,-1.300000000E-1,9.760000000E0,2.300000000E-1,9.763575165E0
1.472975248E0,-1.200000000E-1,9.880000000E0,1.400000000E-1,9.881720498E0
1.482765238E0,9.000000000E-2,9.730000000E0,-1.700000000E-1,9.731901150E0
1.492823783E0,-7.000000000E-2,9.880000000E0,-1.900000000E-1,9.882074681E0
1.504176597E0,5.000000000E-2,9.800000000E0,-1.100000000E-1,9.800744870E0
1.513429595E0,6.000000000E-2,9.870000000E0,-1.800000000E-1,9.871823540E0
1.524347712E0,-3.000000000E-2,9.820000000E0,-2.200000000E-1,9.822509863E0
1.534877126E0,2.200000000E-1,9.850000000E0,5.000000000E-2,9.852583418E0
1.545528384E0,2.500000000E-1,1.009000000E1,-2.000000000E-1,1.009507801E1
1.555917250E0,7.000000000E-2,1.000000000E1,-1.100000000E-1,1.000084996E1
1.567331932E0,1.300000000E-1,9.930000000E0,-2.700000000E-1,9.934520623E0
1.576829977E0,3.400000000E-1,1.003000000E1,4.000000000E-2,1.003584077E1
1.586524803E0,3.900000000E-1,1.004000000E1,-1.700000000E-1,1.004900990E1
1.595633539E0,3.800000000E-1,9.740000000E0,-4.000000000E-1,9.755613768E0
1.604285651E0,2.600000000E-1,1.000000000E1,-7.000000000E-2,1.000362434E1
1.613424375E0,2.100000000E-1,9.610000000E0,-3.000000000E-1,9.616974576E0
1.624670769E0,2.300000000E-1,9.760000000E0,-1.700000000E-1,9.764189675E0
1.635691275E0,1.200000000E-1,9.580000000E0,-1.900000000E-1,9.582635337E0
1.644528492E0,2.100000000E-1,9.530000000E0,-2.000000000E-2,9.532334447E0
1.654839829E0,9.000000000E-2,9.560000000E0,-3.000000000E-2,9.560470700E0
1.664777419E0,3.000000000E-2,9.560000000E0,7.000000000E-2,9.560303342E0
1.675061473E0,5.000000000E-2,9.460000000E0,8.000000000E-2,9.460470390E0
1.685539298E0,-1.200000000E-1,9.510000000E0,5.800000000E-1,9.528425893E0
1.694959277E0,-5.000000000E-2,9.570000000E0,2.800000000E-1,9.574225817E0
1.706343329E0,-6.000000000E-2,9.260000000E0,4.000000000E-1,9.268829484E0
1.716240850E0,-1.700000000E-1,9.250000000E0,5.200000000E-1,9.266164255E0
1.726625152E0,-1.800000000E-1,9.350000000E0,4.000000000E-1,9.360283115E0
1.737030831E0,-3.400000000E-1,9.240000000E0,4.600000000E-1,9.257688696E0
1.746082499E0,-5.500000000E-1,9.170000000E0,5.300000000E-1,9.201755267E0
1.754768095E0,-5.900000000E-1,9.210000000E0,5.800000000E-1,9.247086028E0
1.764502646E0,-9.100000000E-1,9.230000000E0,5.000000000E-1,9.288218344E0
1.775294736E0,-9.700000000E-1,9.260000000E0,3.200000000E-1,9.316163373E0
1.786240401E0,-1.360000000E0,9.220000000E0,3.600000000E-1,9.326714320E0
1.796930369E0,-1.500000000E0,9.120000000E0,2.700000000E-1,9.246475004E0
1.805769984E0,-1.530000000E0,8.900000000E0,-8.000000000E-2,9.030908039E0
1.817010048E0,-1.910000000E0,9.030000000E0,-2.200000000E-1,9.232410303E0
1.827916158E0,-2.200000000E0,8.900000000E0,-1.400000000E-1,9.168947595E0
1.839049232E0,-2.370000000E0,8.640000000E0,-3.400000000E-1,8.965606505E0
1.849119145E0,-2.790000000E0,8.840000000E0,-1.900000000E-1,9.271774372E0
1.860366051E0,-2.890000000E0,8.520000000E0,-6.300000000E-1,9.018835845E0
1.869006008E0,-3.390000000E0,8.600000000E0,-3.600000000E-1,9.251037780E0
1.877596874E0,-3.520000000E0,8.540000000E0,-4.400000000E-1,9.247464517E0
1.886157521E0,-3.750000000E0,8.550000000E0,-4.600000000E-1,9.347545132E0
1.895415827E0,-3.940000000E0,8.390000000E0,-6.000000000E-2,9.269266422E0
1.904661536E0,-3.910000000E0,8.420000000E0,-2.900000000E-1,9.288089147E0
1.913724046E0,-4.430000000E0,8.020000000E0,9.000000000E-2,9.162608799E0
1.923925214E0,-4.540000000E0,7.920000000E0,2.500000000E-1,9.132387421E0
1.932542171E0,-4.610000000E0,7.900000000E0,4.100000000E-1,9.155883354E0
1.942813335E0,-4.730000000E0,7.940000000E0,1.000000000E-1,9.242645725E0
1.951811368E0,-4.840000000E0,7.800000000E0,2.100000000E-1,9.182031366E0
1.962344990E0,-5.100000000E0,7.580000000E0,2.600000000E-1,9.139693649E0
1.970908216E0,-5.240000000E0,7.540000000E0,4.100000000E-1,9.191153355E0
1.980339926E0,-5.080000000E0,7.580000000E0,7.100000000E-1,9.152425908E0
1.991654950E0,-5.380000000E0,7.400000000E0,5.400000000E-1,9.164933169E0
2.001770139E0,-5.400000000E0,7.430000000E0,2.100000000E-1,9.187437075E0
2.012704901E0,-5.300000000E0,7.210000000E0,5.000000000E-2,8.948552956E0
2.023178980E0,-5.130000000E0,7.250000000E0,1.900000000E-1,8.883439649E0
2.033511232E0,-4.850000000E0,7.100000000E0,-9.000000000E-2,8.598872019E0
2.042584990E0,-4.780000000E0,6.920000000E0,-6.000000000E-1,8.431773242E0
2.052808174E0,-4.650000000E0,6.770000000E0,-5.600000000E-1,8.232192903E0
2.061427234E0,-4.470000000E0,6.630000000E0,-9.600000000E-1,8.053533386E0
2.072332227E0,-4.120000000E0,6.550000000E0,-1.160000000E0,7.824480813E0
2.083712439E0,-3.800000000E0,6.470000000E0,-1.490000000E0,7.649901960E0
2.094774467E0,-3.520000000E0,6.360000000E0,-1.220000000E0,7.370780149E0
2.103426596E0,-3.280000000E0,6.220000000E0,-1.570000000E0,7.204977446E0
2.112942576E0,-2.860000000E0,6.240000000E0,-1.540000000E0,7.034827645E0
2.122396585E0,-2.250000000E0,6.030000000E0,-1.740000000E0,6.667158315E0
2.131234736E0,-1.900000000E0,6.220000000E0,-1.590000000E0,6.695259517E0
2.141614572E0,-1.350000000E0,6.020000000E0,-1.310000000E0,6.307059537E0
2.152506946E0,-1.070000000E0,5.780000000E0,-1.030000000E0,5.967763400E0
2.161948111E0,-2.800000000E-1,5.790000000E0,-7.000000000E-1,5.838878317E0
2.173036539E0,1.200000000E-1,5.690000000E0,-6.700000000E-1,5.730567162E0
2.183927919E0,8.900000000E-1,5.590000000E0,-2.900000000E-1,5.667830273E0
2.192815333E0,1.260000000E0,5.650000000E0,1.300000000E-1,5.790250426E0
2.203615911E0,1.820000000E0,5.480000000E0,4.900000000E-1,5.795075496E0
2.214763773E0,2.520000000E0,5.420000000E0,1.150000000E0,6.086813616E0
2.223855620E0,2.930000000E0,5.570000000E0,1.220000000E0,6.410787783E0
2.234076544E0,3.470000000E0,5.430000000E0,1.510000000E0,6.618602572E0
2.244492794E0,3.810000000E0,5.480000000E0,1.800000000E0,6.912778023E0
2.254820797E0,4.460000000E0,5.380000000E0,1.970000000E0,7.260640468E0
2.263609534E0,4.780000000E0,5.380000000E0,1.920000000E0,7.448436077E0
2.274093108E0,5.130000000E0,5.300000000E0,1.740000000E0,7.578555271E0
2.284488972E0,5.570000000E0,5.350000000E0,2.000000000E0,7.977932063E0
2.295460629E0,6.090000000E0,5.420000000E0,1.490000000E0,8.287617269E0
2.306371167E0,6.380000000E0,5.470000000E0,1.590000000E0,8.552976090E0
2.315852671E0,6.840000000E0,5.770000000E0,1.010000000E0,9.005476112E0
2.326518813E0,6.890000000E0,5.780000000E0,6.600000000E-1,9.017544012E0
2.337620634E0,7.100000000E0,6.070000000E0,4.200000000E-1,9.350470576E0
2.348799477E0,7.640000000E0,6.490000000E0,2.300000000E-1,1.002709330E1
2.357784014E0,7.530000000E0,7.000000000E0,-3.100000000E-1,1.028576686E1
2.366364121E0,7.690000000E0,7.420000000E0,-5.000000000E-1,1.069778014E1
2.376816543E0,7.670000000E0,7.870000000E0,-7.600000000E-1,1.101559803E1
2.385960572E0,7.700000000E0,8.330000000E0,-1.060000000E0,1.139309001E1
2.396151701E0,7.780000000E0,9.080000000E0,-1.060000000E0,1.200409930E1
2.407486115E0,7.890000000E0,9.910000000E0,-7.400000000E-1,1.268888490E1
2.417124074E0,7.570000000E0,1.040000000E1,-6.600000000E-1,1.288023680E1
2.426382397E0,7.780000000E0,1.123000000E1,-8.700000000E-1,1.368934622E1
2.436251927E0,7.730000000E0,1.198000000E1,-3.400000000E-1,1.426144803E1
2.446723659E0,7.440000000E0,1.264000000E1,-5.400000000E-1,1.467701605E1
2.455526956E0,7.250000000E0,1.319000000E1,5.000000000E-2,1.505128234E1
2.465168710E0,7.050000000E0,1.402000000E1,-2.000000000E-2,1.569277859E1
2.474069874E0,6.880000000E0,1.447000000E1,4.200000000E-1,1.602784140E1
2.484557213E0,6.740000000E0,1.514000000E1,6.700000000E-1,1.658602122E1
2.495548870E0,6.710000000E0,1.577000000E1,8.900000000E-1,1.716126744E1
2.505179432E0,6.190000000E0,1.630000000E1,1.250000000E0,1.748052059E1
2.514794603E0,6.210000000E0,1.628000000E1,1.000000000E0,1.745286509E1
2.524913168E0,5.910000000E0,1.643000000E1,7.800000000E-1,1.747802620E1
2.534058342E0,5.460000000E0,1.665000000E1,7.100000000E-1,1.753676709E1
2.543300571E0,5.240000000E0,1.677000000E1,8.300000000E-1,1.758918418E1
2.552790127E0,5.250000000E0,1.635000000E1,2.600000000E-1,1.717418411E1
2.562662404E0,5.000000000E0,1.634000000E1,-1.200000000E-1,1.708830009E1
2.571406999E0,4.680000000E0,1.587000000E1,-3.900000000E-1,1.655026888E1
2.582165195E0,4.630000000E0,1.564000000E1,-4.400000000E-1,1.631686551E1
2.592402359E0,4.190000000E0,1.503000000E1,-1.150000000E0,1.564543064E1
2.601801441E0,4.070000000E0,1.473000000E1,-1.680000000E0,1.537401054E1
2.610534080E0,3.790000000E0,1.415000000E1,-1.750000000E0,1.475293530E1
2.621323623E0,3.770000000E0,1.362000000E1,-2.240000000E0,1.430856037E1
2.630216860E0,3.400000000E0,1.294000000E1,-2.370000000E0,1.358751265E1
2.639116480E0,3.260000000E0,1.232000000E1,-2.300000000E0,1.294990347E1
2.648008533E0,3.290000000E0,1.182000000E1,-2.510000000E0,1.252344202E1
2.656752320E0,3.030000000E0,1.133000000E1,-2.580000000E0,1.200858859E1
2.667971497E0,2.860000000E0,1.065000000E1,-2.210000000E0,1.124660838E1
2.677279230E0,2.690000000E0,1.017000000E1,-2.230000000E0,1.075350640E1
2.686698461E0,2.440000000E0,9.830000000E0,-1.950000000E0,1.031431045E1
2.697696844E0,2.050000000E0,9.310000000E0,-1.300000000E0,9.621257714E0
2.708056615E0,1.970000000E0,9.050000000E0,-7.500000000E-1,9.292249459E0
2.717118045E0,1.530000000E0,8.650000000E0,-3.900000000E-1,8.792923291E0
2.726922485E0,1.310000000E0,8.400000000E0,-3.000000000E-2,8.501588087E0
2.738074253E0,1.040000000E0,8.220000000E0,6.000000000E-1,8.307225770E0
2.747700375E0,6.200000000E-1,8.120000000E0,9.000000000E-1,8.193216707E0
2.758333019E0,2.500000000E-1,7.900000000E0,1.500000000E0,8.045029521E0
2.767123442E0,1.200000000E-1,7.630000000E0,2.120000000E0,7.919955808E0
2.777805417E0,-2.600000000E-1,7.710000000E0,2.300000000E0,8.049950310E0
2.788634837E0,-8.300000000E-1,7.510000000E0,2.700000000E0,8.023652535E0
2.799612138E0,-1.300000000E0,7.660000000E0,2.700000000E0,8.225302426E0
2.810134741E0,-1.850000000E0,7.420000000E0,2.610000000E0,8.080284648E0
2.819746939E0,-2.200000000E0,7.530000000E0,2.600000000E0,8.264435855E0
2.828439575E0,-2.610000000E0,7.340000000E0,2.250000000E0,8.108649703E0
2.838495904E0,-2.990000000E0,7.520000000E0,2.030000000E0,8.343344653E0
2.849268283E0,-3.870000000E0,7.170000000E0,1.550000000E0,8.293871231E0
2.858340798E0,-4.050000000E0,7.300000000E0,1.110000000E0,8.421674418E0
2.867639510E0,-4.520000000E0,7.230000000E0,9.200000000E-1,8.576112173E0
2.877747870E0,-5.300000000E0,6.990000000E0,1.500000000E-1,8.773402989E0
2.888492865E0,-5.750000000E0,7.010000000E0,1.800000000E-1,9.068351559E0
2.899682625E0,-6.320000000E0,6.800000000E0,-2.200000000E-1,9.286054060E0
2.908559849E0,-6.850000000E0,6.690000000E0,-5.300000000E-1,9.589551606E0
2.917612660E0,-7.440000000E0,6.600000000E0,-9.100000000E-1,9.987076649E0
2.928511271E0,-7.870000000E0,6.390000000E0,-1.060000000E0,1.019277195E1
2.938944836E0,-8.280000000E0,6.510000000E0,-1.120000000E0,1.059211499E1
2.949607754E0,-9.020000000E0,6.180000000E0,-1.030000000E0,1.098242687E1
2.961098068E0,-9.360000000E0,6.090000000E0,-9.900000000E-1,1.121061104E1
2.972415607E0,-9.930000000E0,5.920000000E0,-4.600000000E-1,1.156991357E1
2.983444683E0,-1.000000000E1,6.040000000E0,-1.200000000E-1,1.168315026E1
2.994276030E0,-1.031000000E1,5.820000000E0,0.000000000E0,1.183927785E1
3.003961088E0,-1.078000000E1,5.690000000E0,4.600000000E-1,1.219820069E1
3.014384775E0,-1.071000000E1,5.600000000E0,4.600000000E-1,1.209444914E1
3.023438112E0,-1.082000000E1,5.580000000E0,9.500000000E-1,1.221111379E1
3.034216595E0,-1.108000000E1,5.390000000E0,1.190000000E0,1.237879639E1
3.044989667E0,-1.092000000E1,5.230000000E0,1.140000000E0,1.216136917E1
3.055653553E0,-1.078000000E1,5.040000000E0,1.290000000E0,1.196971595E1
3.065487950E0,-1.076000000E1,5.000000000E0,1.090000000E0,1.191493600E1
3.075122491E0,-1.050000000E1,5.070000000E0,9.100000000E-1,1.169542646E1
3.084881804E0,-1.008000000E1,4.820000000E0,5.500000000E-1,1.118665723E1
3.093481822E0,-9.920000000E0,4.700000000E0,8.000000000E-2,1.097737674E1
3.104514782E0,-9.550000000E0,4.740000000E0,-3.000000000E-1,1.066583799E1
3.114641892E0,-9.260000000E0,4.360000000E0,-3.600000000E-1,1.024142568E1
3.124304447E0,-8.760000000E0,4.270000000E0,-1.100000000E0,9.807165748E0
3.134448534E0,-7.950000000E0,4.450000000E0,-1.270000000E0,9.198798835E0
3.145113454E0,-7.350000000E0,4.420000000E0,-1.950000000E0,8.795532957E0
3.154757837E0,-6.710000000E0,4.040000000E0,-1.970000000E0,8.076298657E0
3.165749759E0,-6.050000000E0,3.950000000E0,-2.160000000E0,7.541259842E0
3.177008149E0,-5.240000000E0,3.880000000E0,-2.510000000E0,6.986565680E0
3.186670446E0,-4.530000000E0,4.030000000E0,-2.850000000E0,6.699574613E0
3.195583894E0,-3.770000000E0,3.830000000E0,-2.450000000E0,5.906293254E0
3.206365014E0,-3.070000000E0,3.940000000E0,-2.410000000E0,5.545863323E0
3.217843861E0,-2.090000000E0,3.930000000E0,-1.910000000E0,4.843665967E0
3.226787825E0,-1.380000000E0,3.680000000E0,-1.930000000E0,4.378549988E0
3.237425852E0,-4.600000000E-1,3.960000000E0,-1.400000000E0,4.225304723E0
3.248401823E0,2.600000000E-1,3.730000000E0,-5.200000000E-1,3.775036424E0
3.259663538E0,1.080000000E0,3.830000000E0,5.000000000E-2,3.979673353E0
3.268533683E0,1.780000000E0,3.760000000E0,5.800000000E-1,4.200285705E0
3.277309112E0,2.470000000E0,3.760000000E0,8.500000000E-1,4.578318469E0
3.288772727E0,3.530000000E0,3.800000000E0,1.500000000E0,5.399157342E0
3.297622997E0,4.090000000E0,3.680000000E0,2.010000000E0,5.857525075E0
3.306653419E0,4.690000000E0,3.850000000E0,2.200000000E0,6.454347372E0
3.316878278E0,5.220000000E0,3.830000000E0,2.190000000E0,6.834720184E0
3.326717097E0,5.660000000E0,3.900000000E0,2.390000000E0,7.277204133E0
3.337468274E0,6.350000000E0,3.890000000E0,2.370000000E0,7.814825654E0
3.346539946E0,6.930000000E0,4.000000000E0,2.370000000E0,8.345166266E0
3.357783229E0,7.290000000E0,4.230000000E0,2.150000000E0,8.698246950E0
3.366934813E0,7.670000000E0,4.450000000E0,2.100000000E0,9.112705416E0
3.377742146E0,7.940000000E0,4.370000000E0,1.860000000E0,9.252032209E0
3.386444957E0,8.100000000E0,4.800000000E0,1.650000000E0,9.558896380E0
3.396365165E0,8.490000000E0,5.000000000E0,1.010000000E0,9.904554508E0
3.404962840E0,8.600000000E0,5.120000000E0,5.200000000E-1,1.002221532E1
3.414404272E0,8.680000000E0,5.480000000E0,5.000000000E-1,1.027729536E1
3.423840964E0,8.740000000E0,6.230000000E0,1.300000000E-1,1.073393684E1
3.434500209E0,8.940000000E0,6.590000000E0,-2.100000000E-1,1.110836622E1
3.444365262E0,8.810000000E0,7.150000000E0,-9.600000000E-1,1.138684329E1
3.453035585E0,8.870000000E0,7.920000000E0,-8.600000000E-1,1.192236973E1
3.464521670E0,8.670000000E0,8.750000000E0,-9.800000000E-1,1.235685235E1
3.475687768E0,8.720000000E0,9.660000000E0,-1.050000000E0,1.305589905E1
3.486936739E0,8.420000000E0,1.041000000E1,-1.140000000E0,1.343741419E1
3.496176466E0,8.290000000E0,1.107000000E1,-6.300000000E-1,1.384434542E1
3.505858797E0,8.260000000E0,1.184000000E1,-6.100000000E-1,1.444940483E1
3.515040335E0,7.990000000E0,1.251000000E1,-6.300000000E-1,1.485722383E1
3.523915054E0,7.790000000E0,1.332000000E1,-2.200000000E-1,1.543226814E1
3.532514126E0,7.440000000E0,1.403000000E1,2.200000000E-1,1.588215665E1
3.542524135E0,7.370000000E0,1.438000000E1,2.500000000E-1,1.616056311E1
3.551393536E0,6.980000000E0,1.501000000E1,7.600000000E-1,1.657100178E1
3.560422450E0,6.950000000E0,1.546000000E1,6.700000000E-1,1.696357863E1
3.571503877E0,6.620000000E0,1.583000000E1,9.600000000E-1,1.718531059E1
3.581456605E0,6.280000000E0,1.633000000E1,9.600000000E-1,1.752224015E1
3.590507715E0,6.100000000E0,1.667000000E1,8.700000000E-1,1.777233243E1
3.601017309E0,5.730000000E0,1.655000000E1,1.150000000E0,1.755157828E1
3.610314904E0,5.570000000E0,1.672000000E1,7.100000000E-1,1.763766991E1
3.620395715E0,5.110000000E0,1.669000000E1,6.600000000E-1,1.746722073E1
3.629744574E0,5.190000000E0,1.630000000E1,4.200000000E-1,1.711147276E1
3.639793058E0,4.890000000E0,1.624000000E1,-2.600000000E-1,1.696223157E1
3.650178658E0,4.430000000E0,1.581000000E1,-8.300000000E-1,1.643988747E1
3.660287283E0,4.250000000E0,1.532000000E1,-1.010000000E0,1.593063087E1
3.669974095E0,4.170000000E0,1.468000000E1,-1.560000000E0,1.534030313E1
3.680846536E0,4.010000000E0,1.410000000E1,-1.650000000E0,1.475169821E1
3.691966849E0,3.580000000E0,1.338000000E1,-2.360000000E0,1.405028114E1
3.701004962E0,3.690000000E0,1.311000000E1,-2.300000000E0,1.381224819E1
3.709913889E0,3.300000000E0,1.252000000E1,-2.790000000E0,1.324479143E1
3.718753464E0,3.360000000E0,1.173000000E1,-2.730000000E0,1.250341553E1
3.730192254E0,3.040000000E0,1.120000000E1,-2.720000000E0,1.191973154E1
3.741517028E0,2.720000000E0,1.046000000E1,-2.200000000E0,1.102950588E1
3.750709029E0,2.480000000E0,1.017000000E1,-2.070000000E0,1.067071694E1
3.762118752E0,2.130000000E0,9.570000000E0,-1.620000000E0,9.937112257E0
3.771242205E0,1.910000000E0,9.320000000E0,-1.490000000E0,9.629672892E0
3.781261633E0,1.850000000E0,8.890000000E0,-8.700000000E-1,9.122033764E0
3.791253788E0,1.630000000E0,8.370000000E0,-4.000000000E-2,8.527332525E0
3.802498656E0,1.350000000E0,8.200000000E0,4.500000000E-1,8.322559702E0
3.811120242E0,8.900000000E-1,8.110000000E0,9.800000000E-1,8.217335335E0
3.820566295E0,7.800000000E-1,8.090000000E0,1.330000000E0,8.235617767E0
3.830866219E0,1.900000000E-1,7.790000000E0,1.630000000E0,7.960973559E0
3.839565414E0,9.000000000E-2,7.660000000E0,2.310000000E0,8.001237404E0
3.848775065E0,-2.800000000E-1,7.640000000E0,2.240000000E0,7.966529985E0
3.858670256E0,-9.600000000E-1,7.580000000E0,2.380000000E0,8.002649561E0
3.869812827E0,-1.200000000E0,7.500000000E0,2.690000000E0,8.057673361E0
3.880595705E0,-1.760000000E0,7.510000000E0,2.350000000E0,8.063510402E0
3.891582647E0,-2.290000000E0,7.410000000E0,2.510000000E0,8.151828016E0
3.902365856E0,-2.790000000E0,7.430000000E0,2.200000000E0,8.235836327E0
3.912989018E0,-3.450000000E0,7.490000000E0,1.670000000E0,8.413768478E0
3.924038098E0,-4.050000000E0,7.420000000E0,1.300000000E0,8.552713020E0
3.934582528E0,-4.670000000E0,7.050000000E0,8.400000000E-1,8.498058602E0
3.945289578E0,-5.080000000E0,7.100000000E0,1.800000000E-1,8.732055886E0
3.954694511E0,-5.580000000E0,7.050000000E0,-2.000000000E-1,8.993269706E0
3.963697433E0,-6.330000000E0,6.780000000E0,-3.900000000E-1,9.283824643E0
3.974467008E0,-6.690000000E0,6.810000000E0,-8.900000000E-1,9.587716099E0
3.983464520E0,-7.340000000E0,6.600000000E0,-1.010000000E0,9.922484568E0
3.994722888E0,-7.940000000E0,6.530000000E0,-1.080000000E0,1.033687090E1
4.005012816E0,-8.430000000E0,6.410000000E0,-1.010000000E0,1.063828464E1
4.014501119E0,-8.730000000E0,6.470000000E0,-1.030000000E0,1.091488433E1
4.025811048E0,-9.310000000E0,6.140000000E0,-1.060000000E0,1.120264701E1
4.034776439E0,-9.670000000E0,6.140000000E0,-6.000000000E-1,1.147033129E1
4.044819838E0,-1.007000000E1,6.040000000E0,-3.400000000E-1,1.174742951E1
4.053594500E0,-1.026000000E1,5.850000000E0,-1.600000000E-1,1.181167643E1
4.064990783E0,-1.039000000E1,5.920000000E0,1.900000000E-1,1.195970735E1
4.075216911E0,-1.086000000E1,5.590000000E0,2.600000000E-1,1.221700864E1
4.086127911E0,-1.085000000E1,5.460000000E0,8.400000000E-1,1.217537268E1
4.095473678E0,-1.089000000E1,5.480000000E0,9.000000000E-1,1.222425867E1
4.106379068E0,-1.110000000E1,5.290000000E0,8.500000000E-1,1.232544523E1
4.116987594E0,-1.097000000E1,5.250000000E0,1.160000000E0,1.221675080E1
4.127418639E0,-1.064000000E1,4.930000000E0,1.090000000E0,1.177720680E1
4.138770327E0,-1.041000000E1,4.810000000E0,9.100000000E-1,1.150357770E1
4.148570801E0,-1.022000000E1,4.910000000E0,6.400000000E-1,1.135632423E1
4.158316066E0,-1.016000000E1,4.690000000E0,5.000000000E-1,1.120141509E1
4.168892430E0,-9.560000000E0,4.750000000E0,1.000000000E-1,1.067549062E1
4.179897596E0,-9.200000000E0,4.430000000E0,-4.100000000E-1,1.021924655E1
4.189402824E0,-8.830000000E0,4.350000000E0,-1.080000000E0,9.902413847E0
4.199911795E0,-8.160000000E0,4.480000000E0,-1.450000000E0,9.421172963E0
4.209038907E0,-7.460000000E0,4.230000000E0,-1.440000000E0,8.695866834E0
4.219194007E0,-6.840000000E0,4.070000000E0,-2.080000000E0,8.226597109E0
4.230001522E0,-6.280000000E0,4.040000000E0,-2.270000000E0,7.804671678E0
4.238697467E0,-5.770000000E0,4.180000000E0,-2.690000000E0,7.615865020E0
4.249380993E0,-4.690000000E0,3.940000000E0,-2.570000000E0,6.642635019E0
4.257927291E0,-4.010000000E0,4.000000000E0,-2.550000000E0,6.211489354E0
4.269302341E0,-3.280000000E0,4.050000000E0,-2.340000000E0,5.712836423E0
4.279208350E0,-2.590000000E0,3.930000000E0,-2.010000000E0,5.117919499E0
4.288935563E0,-1.690000000E0,3.950000000E0,-1.940000000E0,4.714042851E0
4.299596897E0,-7.700000000E-1,4.000000000E0,-1.570000000E0,4.365524024E0
4.309666793E0,-4.000000000E-2,3.750000000E0,-1.160000000E0,3.925519074E0
4.320359340E0,7.700000000E-1,3.940000000E0,-5.000000000E-1,4.045553114E0
4.329113613E0,1.410000000E0,3.830000000E0,4.000000000E-2,4.081494824E0
4.339301989E0,2.210000000E0,3.710000000E0,8.600000000E-1,4.403157958E0
4.349476315E0,2.870000000E0,3.700000000E0,1.160000000E0,4.824157958E0
4.360772657E0,3.740000000E0,3.790000000E0,1.760000000E0,5.607967546E0
4.369391474E0,4.560000000E0,3.740000000E0,2.130000000E0,6.270414659E0
4.379249933E0,4.850000000E0,4.000000000E0,2.070000000E0,6.618715888E0
4.389643151E0,5.710000000E0,3.960000000E0,2.390000000E0,7.348319536E0
4.399795392E0,6.290000000E0,3.830000000E0,2.630000000E0,7.819840152E0
4.408517875E0,6.590000000E0,4.170000000E0,2.380000000E0,8.153612696E0
4.418797561E0,7.120000000E0,4.150000000E0,2.300000000E0,8.556103085E0
4.427964151E0,7.360000000E0,4.200000000E0,2.410000000E0,8.810090805E0
4.437050799E0,7.840000000E0,4.230000000E0,2.110000000E0,9.154812942E0
4.448186871E0,8.190000000E0,4.570000000E0,1.440000000E0,9.488656385E0
4.457280398E0,8.430000000E0,4.960000000E0,1.060000000E0,9.838195973E0
4.467143270E0,8.540000000E0,5.170000000E0,1.010000000E0,1.003397229E1
4.477894131E0,8.870000000E0,5.550000000E0,3.600000000E-1,1.046943169E1
4.488516077E0,8.940000000E0,6.100000000E0,-1.400000000E-1,1.082373318E1
4.498676454E0,8.890000000E0,6.630000000E0,-3.000000000E-1,1.109409753E1
4.509597591E0,8.940000000E0,7.320000000E0,-6.300000000E-1,1.157164206E1
4.519495040E0,8.750000000E0,7.830000000E0,-6.700000000E-1,1.176096510E1
4.529856196E0,8.910000000E0,8.560000000E0,-1.240000000E0,1.241770108E1
4.540812946E0,8.680000000E0,9.340000000E0,-9.300000000E-1,1.278447887E1
4.551347221E0,8.610000000E0,1.046000000E1,-1.010000000E0,1.358542601E1
4.561772706E0,8.220000000E0,1.100000000E1,-9.600000000E-1,1.376553668E1
4.571491092E0,8.270000000E0,1.186000000E1,-6.200000000E-1,1.447193491E1
4.581666062E0,7.740000000E0,1.276000000E1,-6.000000000E-1,1.493603696E1
4.591354310E0,7.660000000E0,1.344000000E1,-2.600000000E-1,1.547180662E1
4.602087187E0,7.250000000E0,1.432000000E1,4.000000000E-2,1.605074765E1
4.611728478E0,7.030000000E0,1.468000000E1,6.000000000E-1,1.628751976E1
4.621628341E0,6.970000000E0,1.519000000E1,8.500000000E-1,1.673438078E1
4.632394712E0,6.440000000E0,1.570000000E1,8.100000000E-1,1.698881102E1
4.642405680E0,6.290000000E0,1.618000000E1,9.500000000E-1,1.738559749E1
4.651919777E0,5.970000000E0,1.636000000E1,1.200000000E0,1.745653173E1
4.662900234E0,5.920000000E0,1.659000000E1,9.400000000E-1,1.763967403E1
4.672543122E0,5.400000000E0,1.671000000E1,7.700000000E-1,1.757774161E1
4.683577309E0,5.220000000E0,1.651000000E1,8.000000000E-1,1.733402723E1
4.694433031E0,5.140000000E0,1.644000000E1,2.500000000E-1,1.722659862E1
4.704274897E0,4.860000000E0,1.594000000E1,-1.200000000E-1,1.666486124E1
4.714913570E0,4.630000000E0,1.574000000E1,-5.300000000E-1,1.641540130E1
4.723516739E0,4.540000000E0,1.549000000E1,-1.180000000E0,1.618468721E1
4.733186134E0,4.000000000E0,1.502000000E1,-1.410000000E0,1.560732200E1
4.744267135E0,4.000000000E0,1.428000000E1,-1.650000000E0,1.492115612E1
4.754505753E0,3.830000000E0,1.382000000E1,-2.060000000E0,1.448809511E1
4.764679231E0,3.630000000E0,1.293000000E1,-2.200000000E0,1.360888680E1
4.775173447E0,3.420000000E0,1.230000000E1,-2.660000000E0,1.304078219E1
4.785706462E0,2.990000000E0,1.171000000E1,-2.630000000E0,1.236855287E1
4.795957257E0,2.790000000E0,1.113000000E1,-2.680000000E0,1.178318293E1
4.805719145E0,2.830000000E0,1.069000000E1,-2.540000000E0,1.134621523E1
4.814769596E0,2.580000000E0,1.008000000E1,-2.340000000E0,1.066482067E1
4.824147522E0,2.240000000E0,9.500000000E0,-1.950000000E0,9.953396405E0
4.833526289E0,1.940000000E0,9.320000000E0,-1.560000000E0,9.646740382E0
4.843318523E0,1.870000000E0,8.790000000E0,-9.300000000E-1,9.034705308E0
4.854815700E0,1.410000000E0,8.670000000E0,-3.300000000E-1,8.790102388E0
4.864373356E0,1.370000000E0,8.190000000E0,3.800000000E-1,8.312484586E0
4.874215493E0,9.200000000E-1,8.030000000E0,9.200000000E-1,8.134721876E0
4.883830376E0,7.700000000E-1,7.830000000E0,1.290000000E0,7.972822587E0
4.894074659E0,1.600000000E-1,7.780000000E0,1.810000000E0,7.989374193E0
4.905418355E0,-1.200000000E-1,7.800000000E0,2.130000000E0,8.086488731E0
4.916585574E0,-7.100000000E-1,7.620000000E0,2.340000000E0,8.002755775E0
4.926216990E0,-8.800000000E-1,7.500000000E0,2.580000000E0,7.980025063E0
4.935517693E0,-1.370000000E0,7.640000000E0,2.680000000E0,8.211510214E0
4.946670889E0,-2.010000000E0,7.640000000E0,2.760000000E0,8.368231593E0
4.956652389E0,-2.240000000E0,7.360000000E0,2.520000000E0,8.095529631E0
4.967209013E0,-2.880000000E0,7.400000000E0,1.860000000E0,8.155611565E0
4.975928887E0,-3.450000000E0,7.210000000E0,1.850000000E0,8.204212333E0
4.987028560E0,-3.860000000E0,7.100000000E0,1.140000000E0,8.161445950E0
4.996467456E0,-4.540000000E0,7.150000000E0,1.010000000E0,8.529607259E0
5.006451036E0,-4.890000000E0,7.030000000E0,6.900000000E-1,8.591222265E0
5.015545100E0,-5.610000000E0,7.150000000E0,2.400000000E-1,9.091325536E0
5.025305827E0,-5.900000000E0,6.760000000E0,-4.200000000E-1,8.982427289E0
5.036289974E0,-6.820000000E0,6.870000000E0,-6.200000000E-1,9.700190720E0
5.047272712E0,-7.160000000E0,6.790000000E0,-1.000000000E0,9.918150029E0
5.057193728E0,-7.820000000E0,6.570000000E0,-9.200000000E-1,1.025493540E1
5.067997460E0,-8.300000000E0,6.480000000E0,-9.600000000E-1,1.057364649E1
5.077871661E0,-8.680000000E0,6.280000000E0,-9.200000000E-1,1.075300888E1
5.087491730E0,-9.290000000E0,6.170000000E0,-1.010000000E0,1.119790605E1
5.097629397E0,-9.630000000E0,5.990000000E0,-7.100000000E-1,1.136314657E1
5.106733419E0,-9.990000000E0,6.180000000E0,-6.900000000E-1,1.176726816E1
5.116183104E0,-1.007000000E1,5.760000000E0,-7.000000000E-2,1.160118097E1
5.126802690E0,-1.053000000E1,5.670000000E0,2.500000000E-1,1.196211938E1
5.137614232E0,-1.066000000E1,5.750000000E0,1.100000000E-1,1.211239861E1
5.146284356E0,-1.086000000E1,5.560000000E0,6.000000000E-1,1.221528551E1
5.156982835E0,-1.100000000E1,5.450000000E0,9.200000000E-1,1.231051989E1
5.167935124E0,-1.080000000E1,5.250000000E0,8.500000000E-1,1.203847997E1
5.177770705E0,-1.092000000E1,5.090000000E0,8.300000000E-1,1.207656408E1
5.186458067E0,-1.080000000E1,5.210000000E0,8.100000000E-1,1.201832767E1
5.197006807E0,-1.063000000E1,4.860000000E0,1.070000000E0,1.173718024E1
5.206245298E0,-1.039000000E1,4.830000000E0,5.700000000E-1,1.147196147E1
5.216675370E0,-1.031000000E1,4.880000000E0,4.900000000E-1,1.141711873E1
5.226305237E0,-1.006000000E1,4.620000000E0,3.800000000E-1,1.107666015E1
5.236716728E0,-9.510000000E0,4.750000000E0,-3.800000000E-1,1.063705786E1
5.245991132E0,-9.200000000E0,4.390000000E0,-4.400000000E-1,1.020322008E1
5.255920743E0,-8.760000000E0,4.430000000E0,-1.000000000E0,9.867243789E0
5.265994768E0,-7.890000000E0,4.350000000E0,-1.450000000E0,9.125628745E0
5.276387807E0,-7.360000000E0,4.260000000E0,-1.800000000E0,8.692364465E0
5.285497311E0,-6.850000000E0,4.290000000E0,-2.180000000E0,8.371320087E0
5.296883464E0,-6.170000000E0,3.960000000E0,-2.220000000E0,7.660215402E0
5.306250878E0,-5.280000000E0,4.080000000E0,-2.470000000E0,7.115173926E0
5.315668939E0,-4.650000000E0,4.110000000E0,-2.670000000E0,6.755997336E0
5.324937876E0,-4.060000000E0,3.810000000E0,-2.770000000E0,6.218729774E0
5.333640305E0,-3.100000000E0,3.940000000E0,-2.460000000E0,5.584371048E0
5.343409073E0,-2.330000000E0,3.870000000E0,-1.990000000E0,4.936182736E0
5.354224582E0,-1.460000000E0,3.830000000E0,-1.680000000E0,4.429774261E0
5.364853283E0,-6.400000000E-1,3.850000000E0,-1.640000000E0,4.233402887E0
5.373940000E0,-1.000000000E-2,3.870000000E0,-1.050000000E0,4.009925186E0
5.382850796E0,6.200000000E-1,3.880000000E0,-5.200000000E-1,3.963483316E0
5.392315080E0,1.480000000E0,3.950000000E0,-3.000000000E-2,4.218269787E0
5.403119845E0,2.130000000E0,3.870000000E0,4.100000000E-1,4.436428744E0
5.413084080E0,3.030000000E0,4.000000000E0,9.700000000E-1,5.110949031E0
5.424353632E0,3.630000000E0,3.900000000E0,1.670000000E0,5.583529350E0
5.434822784E0,4.310000000E0,3.790000000E0,2.170000000E0,6.135886244E0
5.445185504E0,5.200000000E0,3.780000000E0,2.460000000E0,6.883313156E0
5.455988577E0,5.700000000E0,3.800000000E0,2.640000000E0,7.341634695E0
5.466739352E0,6.400000000E0,3.920000000E0,2.700000000E0,7.975988967E0
5.476270866E0,6.890000000E0,3.930000000E0,2.320000000E0,8.264345104E0
5.485541892E0,7.310000000E0,4.210000000E0,2.290000000E0,8.740955325E0
5.495354756E0,7.620000000E0,4.330000000E0,2.120000000E0,9.017078241E0
5.505322497E0,8.030000000E0,4.470000000E0,1.760000000E0,9.357317992E0
5.514247666E0,8.220000000E0,4.580000000E0,1.500000000E0,9.528630542E0
5.524071662E0,8.550000000E0,4.880000000E0,1.100000000E0,9.905902281E0
5.534491132E0,8.740000000E0,5.160000000E0,6.200000000E-1,1.016846104E1
5.543398276E0,8.560000000E0,5.760000000E0,8.000000000E-2,1.031782923E1
5.552312389E0,8.730000000E0,5.860000000E0,1.500000000E-1,1.051546480E1
5.561333553E0,8.820000000E0,6.450000000E0,-1.200000000E-1,1.092745625E1
5.570683548E0,8.790000000E0,7.090000000E0,-5.800000000E-1,1.130789989E1
5.582068675E0,8.730000000E0,7.700000000E0,-1.000000000E0,1.168344555E1
5.590646049E0,8.920000000E0,8.540000000E0,-1.040000000E0,1.239272367E1
5.599697267E0,8.530000000E0,9.080000000E0,-8.600000000E-1,1.248787011E1
5.608692410E0,8.470000000E0,9.740000000E0,-1.000000000E0,1.294637015E1
5.618615454E0,8.520000000E0,1.041000000E1,-8.600000000E-1,1.347954376E1
5.627160673E0,8.180000000E0,1.117000000E1,-7.100000000E-1,1.386309489E1
5.637035192E0,7.990000000E0,1.206000000E1,-3.600000000E-1,1.447111951E1
5.646023960E0,8.040000000E0,1.264000000E1,-2.800000000E-1,1.498297701E1
5.655332880E0,7.760000000E0,1.324000000E1,-2.900000000E-1,1.534924428E1
5.666210202E0,7.380000000E0,1.418000000E1,2.300000000E-1,1.598717298E1
5.675262404E0,7.040000000E0,1.465000000E1,6.900000000E-1,1.626838037E1
5.685613790E0,6.810000000E0,1.542000000E1,5.400000000E-1,1.686547064E1
5.695332727E0,6.810000000E0,1.582000000E1,6.900000000E-1,1.723730257E1
5.705085514E0,6.480000000E0,1.620000000E1,8.000000000E-1,1.746626463E1
5.716036050E0,5.940000000E0,1.656000000E1,8.500000000E-1,1.761362257E1
5.725018795E0,5.930000000E0,1.668000000E1,8.500000000E-1,1.772314306E1
5.736290226E0,5.530000000E0,1.658000000E1,1.000000000E0,1.750649308E1
5.747470698E0,5.370000000E0,1.661000000E1,6.500000000E-1,1.746858609E1
5.757975664E0,4.980000000E0,1.632000000E1,3.900000000E-1,1.706736359E1
5.766624006E0,4.720000000E0,1.608000000E1,-2.000000000E-2,1.675843668E1
5.777113932E0,4.440000000E0,1.572000000E1,-5.500000000E-1,1.634424975E1
5.787414975E0,4.320000000E0,1.525000000E1,-7.700000000E-1,1.586876807E1
5.798231592E0,4.290000000E0,1.476000000E1,-1.540000000E0,1.544776036E1
5.807373087E0,4.120000000E0,1.426000000E1,-1.800000000E0,1.495198983E1
5.818733155E0,3.820000000E0,1.375000000E1,-2.160000000E0,1.443331216E1
5.829891747E0,3.630000000E0,1.292000000E1,-2.310000000E0,1.361761359E1
5.838734818E0,3.260000000E0,1.230000000E1,-2.420000000E0,1.295276032E1
5.848180424E0,3.130000000E0,1.185000000E1,-2.580000000E0,1.252500699E1
5.856777756E0,3.160000000E0,1.126000000E1,-2.540000000E0,1.196765641E1
5.867770598E0,2.960000000E0,1.081000000E1,-2.550000000E0,1.149435514E1
5.879015882E0,2.540000000E0,1.005000000E1,-2.110000000E0,1.057857268E1
5.890485310E0,2.400000000E0,9.620000000E0,-1.580000000E0,1.003996016E1
5.900821085E0,2.210000000E0,9.060000000E0,-1.320000000E0,9.418603931E0
5.911319042E0,1.960000000E0,8.790000000E0,-6.300000000E-1,9.027879042E0
5.921854258E0,1.430000000E0,8.610000000E0,-1.800000000E-1,8.729799540E0
5.932064703E0,1.260000000E0,8.170000000E0,3.900000000E-1,8.275783951E0
5.943421972E0,8.100000000E-1,8.050000000E0,1.040000000E0,8.157217663E0
5.953745556E0,4.900000000E-1,7.880000000E0,1.310000000E0,8.003161875E0
5.963252734E0,1.500000000E-1,7.660000000E0,1.740000000E0,7.856570499E0
5.973291366E0,-3.000000000E-1,7.580000000E0,2.060000000E0,7.860661550E0
5.981847354E0,-7.300000000E-1,7.820000000E0,2.450000000E0,8.227259568E0
5.992519733E0,-9.200000000E-1,7.600000000E0,2.670000000E0,8.107730879E0
6.003101497E0,-1.420000000E0,7.670000000E0,2.710000000E0,8.257687328E0
6.012864650E0,-1.830000000E0,7.520000000E0,2.380000000E0,8.097141471E0
6.023919093E0,-2.610000000E0,7.600000000E0,2.240000000E0,8.342044114E0
6.034685671E0,-3.130000000E0,7.300000000E0,1.840000000E0,8.153066908E0
6.044195725E0,-3.500000000E0,7.330000000E0,1.760000000E0,8.311227346E0
6.052928219E0,-3.840000000E0,7.290000000E0,1.300000000E0,8.341444719E0
6.061824888E0,-4.480000000E0,7.300000000E0,8.500000000E-1,8.607142383E0
6.070877705E0,-5.070000000E0,6.950000000E0,4.400000000E-1,8.614000232E0
6.080289459E0,-5.450000000E0,6.980000000E0,4.100000000E-1,8.865156513E0
6.090132006E0,-5.860000000E0,6.930000000E0,-2.000000000E-1,9.077692438E0
6.101415996E0,-6.490000000E0,6.860000000E0,-3.100000000E-1,9.448587196E0
6.110751250E0,-6.970000000E0,6.610000000E0,-8.800000000E-1,9.646108023E0
6.121947007E0,-7.710000000E0,6.630000000E0,-1.130000000E0,1.023122182E1
6.132488393E0,-8.280000000E0,6.570000000E0,-9.600000000E-1,1.061343017E1
6.143548872E0,-8.570000000E0,6.460000000E0,-8.400000000E-1,1.076485485E1
6.153258632E0,-9.020000000E0,6.170000000E0,-1.110000000E0,1.098459831E1
6.161768462E0,-9.330000000E0,6.150000000E0,-6.100000000E-1,1.119122424E1
6.172629364E0,-9.880000000E0,5.970000000E0,-5.100000000E-1,1.155488641E1
6.181865792E0,-1.021000000E1,5.890000000E0,-1.000000000E-1,1.178754427E1
6.190793233E0,-1.047000000E1,5.780000000E0,1.800000000E-1,1.196084027E1
6.201691707E0,-1.049000000E1,5.850000000E0,2.400000000E-1,1.201333426E1
6.212250693E0,-1.064000000E1,5.400000000E0,7.800000000E-1,1.195734084E1
6.221387939E0,-1.094000000E1,5.630000000E0,6.100000000E-1,1.231879053E1
6.230690684E0,-1.081000000E1,5.200000000E0,9.100000000E-1,1.203013716E1
6.242008344E0,-1.098000000E1,5.090000000E0,1.020000000E0,1.214532420E1
6.251313958E0,-1.089000000E1,5.030000000E0,9.400000000E-1,1.203231482E1
6.261921175E0,-1.070000000E1,4.940000000E0,9.800000000E-1,1.182598833E1
6.270809835E0,-1.065000000E1,5.040000000E0,9.800000000E-1,1.182304952E1
6.281754943E0,-1.036000000E1,4.930000000E0,4.000000000E-1,1.148017857E1
6.290607713E0,-1.008000000E1,4.870000000E0,3.100000000E-1,1.119908032E1
6.300655836E0,-9.710000000E0,4.580000000E0,-3.000000000E-2,1.073598621E1
6.309261489E0,-9.250000000E0,4.370000000E0,-5.400000000E-1,1.024455953E1
6.319411725E0,-8.910000000E0,4.500000000E0,-7.500000000E-1,1.001002497E1
6.330451590E0,-8.080000000E0,4.500000000E0,-1.410000000E0,9.355452955E0
6.339204785E0,-7.780000000E0,4.150000000E0,-1.600000000E0,8.961634895E0
6.348527555E0,-7.110000000E0,4.340000000E0,-1.940000000E0,8.552853325E0
6.359321634E0,-6.320000000E0,3.970000000E0,-2.160000000E0,7.769742595E0
6.369645929E0,-5.770000000E0,4.160000000E0,-2.280000000E0,7.469732258E0
6.379084320E0,-4.990000000E0,4.030000000E0,-2.390000000E0,6.844932432E0
6.389471031E0,-4.140000000E0,4.120000000E0,-2.600000000E0,6.393277720E0
6.399335162E0,-3.380000000E0,4.070000000E0,-2.610000000E0,5.899271141E0
6.410422231E0,-2.380000000E0,3.730000000E0,-2.380000000E0,5.024111862E0
6.419801051E0,-1.670000000E0,3.860000000E0,-1.810000000E0,4.578711609E0
6.430574243E0,-1.030000000E0,3.750000000E0,-1.380000000E0,4.126475494E0
6.440981265E0,5.000000000E-2,3.800000000E0,-8.600000000E-1,3.896421435E0
6.451702551E0,8.000000000E-1,3.660000000E0,-2.800000000E-1,3.756860391E0
6.461337336E0,1.590000000E0,3.760000000E0,1.200000000E-1,4.084127814E0
6.472012099E0,2.220000000E0,3.780000000E0,8.600000000E-1,4.467258667E0
6.482607377E0,3.100000000E0,3.650000000E0,1.290000000E0,4.959495942E0
6.492269844E0,3.850000000E0,3.840000000E0,1.720000000E0,5.703200856E0
6.500849201E0,4.460000000E0,4.010000000E0,2.160000000E0,6.374739210E0
6.512237941E0,5.170000000E0,3.750000000E0,2.410000000E0,6.826382644E0
6.522878742E0,5.590000000E0,4.100000000E0,2.670000000E0,7.428795326E0
6.531992958E0,6.290000000E0,3.980000000E0,2.830000000E0,7.963253104E0
6.542685379E0,6.730000000E0,3.950000000E0,2.530000000E0,8.203432209E0
6.552021429E0,7.180000000E0,4.290000000E0,2.590000000E0,8.755832342E0
6.561929286E0,7.630000000E0,4.230000000E0,2.150000000E0,8.985115469E0
6.573008950E0,7.850000000E0,4.390000000E0,1.900000000E0,9.192638359E0
6.582853166E0,8.320000000E0,4.580000000E0,1.730000000E0,9.653584826E0
6.592217186E0,8.530000000E0,5.010000000E0,1.400000000E0,9.991045991E0
6.601633659E0,8.680000000E0,5.060000000E0,9.900000000E-1,1.009584568E1
6.610364711E0,8.660000000E0,5.440000000E0,5.300000000E-1,1.024061033E1
6.619523228E0,8.810000000E0,5.880000000E0,2.000000000E-1,1.059388975E1
6.628836547E0,8.740000000E0,6.290000000E0,-1.200000000E-1,1.076875573E1
6.637855454E0,8.970000000E0,7.080000000E0,-5.300000000E-1,1.143976398E1
6.646544651E0,9.000000000E0,7.510000000E0,-9.300000000E-1,1.175861386E1
6.656442019E0,8.690000000E0,8.220000000E0,-1.210000000E0,1.202283660E1
6.665585207E0,8.820000000E0,8.990000000E0,-9.200000000E-1,1.262770367E1
6.676301519E0,8.670000000E0,9.660000000E0,-9.300000000E-1,1.301343152E1
6.687569102E0,8.270000000E0,1.047000000E1,-8.400000000E-1,1.336859753E1
6.696888056E0,8.410000000E0,1.129000000E1,-7.700000000E-1,1.409911699E1
6.707104801E0,8.050000000E0,1.208000000E1,-5.000000000E-1,1.452511274E1
6.717124978E0,7.760000000E0,1.277000000E1,-2.000000000E-1,1.494424638E1
6.725850303E0,7.470000000E0,1.338000000E1,-5.000000000E-2,1.532409214E1
6.734724927E0,7.520000000E0,1.403000000E1,2.800000000E-1,1.592073177E1
6.745879265E0,7.080000000E0,1.486000000E1,3.700000000E-1,1.646459535E1
6.755801721E0,6.890000000E0,1.520000000E1,7.600000000E-1,1.670597797E1
6.766715551E0,6.490000000E0,1.599000000E1,1.000000000E0,1.728583813E1
6.775415293E0,6.410000000E0,1.604000000E1,1.070000000E0,1.730649011E1
6.785699732E0,6.060000000E0,1.634000000E1,9.500000000E-1,1.745341514E1
6.796795668E0,5.920000000E0,1.646000000E1,8.200000000E-1,1.751143626E1
6.807896867E0,5.590000000E0,1.661000000E1,9.100000000E-1,1.754902561E1
6.816414034E0,5.400000000E0,1.655000000E1,4.400000000E-1,1.741424991E1
6.826479194E0,5.000000000E0,1.651000000E1,4.800000000E-1,1.725718691E1
6.836086208E0,4.710000000E0,1.635000000E1,-1.700000000E-1,1.701574271E1
6.846866335E0,4.760000000E0,1.576000000E1,-3.100000000E-1,1.646606510E1
6.855585992E0,4.590000000E0,1.560000000E1,-8.900000000E-1,1.628558258E1
6.864880771E0,4.300000000E0,1.498000000E1,-1.010000000E0,1.561763426E1
6.875818700E0,4.170000000E0,1.444000000E1,-1.780000000E0,1.513508837E1
6.885727368E0,3.900000000E0,1.378000000E1,-2.170000000E0,1.448472644E1
6.895586819E0,3.680000000E0,1.346000000E1,-2.190000000E0,1.412480442E1
6.906992495E0,3.390000000E0,1.258000000E1,-2.370000000E0,1.324256018E1
6.916452167E0,3.190000000E0,1.212000000E1,-2.680000000E0,1.281611876E1
6.925077333E0,3.070000000E0,1.136000000E1,-2.620000000E0,1.205565842E1
6.934753936E0,2.780000000E0,1.104000000E1,-2.430000000E0,1.164108672E1
6.943714057E0,2.670000000E0,1.038000000E1,-2.440000000E0,1.099212900E1
6.952459732E0,2.510000000E0,1.002000000E1,-2.150000000E0,1.055097152E1
6.962663313E0,2.120000000E0,9.620000000E0,-1.680000000E0,9.993057590E0
6.974024040E0,1.970000000E0,8.990000000E0,-1.300000000E0,9.294675895E0
6.984262263E0,1.680000000E0,8.760000000E0,-8.500000000E-1,8.960050223E0
6.994703606E0,1.520000000E0,8.570000000E0,9.000000000E-2,8.704217369E0
7.004174493E0,1.300000000E0,8.120000000E0,2.200000000E-1,8.226347914E0
7.014387862E0,9.200000000E-1,8.040000000E0,1.190000000E0,8.179492649E0
7.025144595E0,5.800000000E-1,7.800000000E0,1.640000000E0,7.991620612E0
7.035412450E0,2.000000000E-1,7.690000000E0,1.870000000E0,7.916628070E0
7.046320785E0,-3.400000000E-1,7.740000000E0,2.430000000E0,8.119612060E0
7.056472197E0,-7.100000000E-1,7.680000000E0,2.260000000E0,8.037045477E0
7.065566629E0,-9.300000000E-1,7.700000000E0,2.620000000E0,8.186531622E0
7.075814808E0,-1.350000000E0,7.730000000E0,2.540000000E0,8.247848204E0
7.085787615E0,-2.090000000E0,7.620000000E0,2.420000000E0,8.263709821E0
7.094785422E0,-2.580000000E0,7.430000000E0,2.560000000E0,8.271330002E0
7.105142919E0,-2.770000000E0,7.420000000E0,1.850000000E0,8.133375683E0
7.116093801E0,-3.370000000E0,7.410000000E0,1.890000000E0,8.356859458E0
7.124999064E0,-3.920000000E0,7.390000000E0,1.150000000E0,8.443991947E0
7.135133902E0,-4.390000000E0,7.260000000E0,1.030000000E0,8.546379350E0
7.145834963E0,-5.050000000E0,7.100000000E0,3.800000000E-1,8.721060715E0
7.155544016E0,-5.460000000E0,6.880000000E0,1.100000000E-1,8.783968351E0
7.164854155E0,-6.190000000E0,7.050000000E0,-4.000000000E-2,9.381908121E0
7.174470996E0,-6.640000000E0,6.750000000E0,-4.100000000E-1,9.477351951E0
7.184596091E0,-7.080000000E0,6.690000000E0,-1.010000000E0,9.792987287E0
7.195156073E0,-7.780000000E0,6.750000000E0,-1.080000000E0,1.035651003E1
7.205333598E0,-8.090000000E0,6.400000000E0,-1.070000000E0,1.037077625E1
7.214154673E0,-8.660000000E0,6.550000000E0,-9.500000000E-1,1.089956880E1
7.225108332E0,-8.970000000E0,6.190000000E0,-1.210000000E0,1.096545029E1
7.236379912E0,-9.380000000E0,6.010000000E0,-6.000000000E-1,1.115636590E1
7.245183790E0,-9.830000000E0,6.060000000E0,-4.100000000E-1,1.155511142E1
7.254432349E0,-9.920000000E0,6.050000000E0,-1.100000000E-1,1.161985370E1
7.263453392E0,-1.030000000E1,5.810000000E0,-2.300000000E-1,1.182789077E1
7.274500858E0,-1.050000000E1,5.830000000E0,1.000000000E-1,1.201036636E1
7.285731694E0,-1.095000000E1,5.550000000E0,7.100000000E-1,1.229671094E1
7.294364515E0,-1.102000000E1,5.590000000E0,7.500000000E-1,1.237945879E1
7.303861773E0,-1.086000000E1,5.240000000E0,7.900000000E-1,1.208392734E1
7.312939257E0,-1.079000000E1,5.200000000E0,7.800000000E-1,1.200302045E1
7.322847855E0,-1.085000000E1,5.030000000E0,9.300000000E-1,1.199534493E1
7.334112627E0,-1.062000000E1,5.120000000E0,1.110000000E0,1.184191285E1
7.342823146E0,-1.077000000E1,4.940000000E0,1.020000000E0,1.189272467E1
7.351836984E0,-1.027000000E1,4.910000000E0,6.500000000E-1,1.140190774E1
7.361798071E0,-9.990000000E0,4.660000000E0,6.500000000E-1,1.104256311E1
7.371870176E0,-9.730000000E0,4.740000000E0,1.100000000E-1,1.082370547E1
7.382606679E0,-9.360000000E0,4.730000000E0,-3.100000000E-1,1.049183492E1
7.392419737E0,-8.810000000E0,4.320000000E0,-7.800000000E-1,9.843114345E0
7.401343148E0,-8.510000000E0,4.330000000E0,-1.150000000E0,9.617250127E0
7.410903983E0,-7.830000000E0,4.450000000E0,-1.560000000E0,9.140295400E0
7.422350263E0,-7.130000000E0,4.360000000E0,-1.750000000E0,8.538676712E0
7.433102429E0,-6.490000000E0,4.290000000E0,-2.270000000E0,8.104140917E0
7.441951462E0,-5.980000000E0,4.010000000E0,-2.570000000E0,7.644959124E0
7.452876090E0,-5.280000000E0,4.060000000E0,-2.620000000E0,7.157262046E0
7.462308869E0,-4.510000000E0,3.850000000E0,-2.400000000E0,6.397077458E0
7.473153059E0,-3.460000000E0,3.920000000E0,-2.460000000E0,5.778373474E0
7.481691223E0,-3.010000000E0,3.940000000E0,-2.570000000E0,5.584675461E0
7.492805033E0,-2.180000000E0,3.790000000E0,-2.100000000E0,4.850412354E0
7.501791964E0,-1.400000000E0,3.820000000E0,-1.750000000E0,4.428871188E0
7.511659216E0,-5.200000000E-1,3.780000000E0,-1.540000000E0,4.114656729E0
7.522144483E0,3.300000000E-1,3.670000000E0,-5.400000000E-1,3.724164336E0
7.532168092E0,1.210000000E0,3.660000000E0,-3.000000000E-2,3.854944876E0
7.541164285E0,1.890000000E0,3.910000000E0,5.000000000E-2,4.343120998E0
7.550081641E0,2.590000000E0,3.640000000E0,7.600000000E-1,4.531589125E0
7.559435244E0,3.230000000E0,4.000000000E0,1.110000000E0,5.259752846E0
7.568092419E0,3.680000000E0,3.980000000E0,1.450000000E0,5.611176347E0
7.577242053E0,4.180000000E0,4.040000000E0,1.850000000E0,6.100532764E0
7.586132368E0,5.020000000E0,3.990000000E0,2.020000000E0,6.723161459E0
7.596026759E0,5.350000000E0,3.750000000E0,2.560000000E0,7.017022160E0
7.605596289E0,6.020000000E0,3.830000000E0,2.520000000E0,7.567013942E0
7.615856786E0,6.410000000E0,3.960000000E0,2.710000000E0,8.007109341E0
7.625199423E0,7.030000000E0,3.970000000E0,2.690000000E0,8.509870739E0
7.633801156E0,7.180000000E0,4.010000000E0,2.420000000E0,8.572566710E0
7.643294486E0,7.610000000E0,4.430000000E0,2.070000000E0,9.045545865E0
7.654060028E0,7.880000000E0,4.610000000E0,1.620000000E0,9.272049396E0
7.663327543E0,8.360000000E0,4.780000000E0,1.530000000E0,9.750840989E0
7.673041188E0,8.490000000E0,4.870000000E0,1.140000000E0,9.853760703E0
7.683806111E0,8.680000000E0,5.460000000E0,7.400000000E-1,1.028112834E1
7.693526155E0,8.690000000E0,5.860000000E0,2.000000000E-2,1.048122607E1
7.704687527E0,8.730000000E0,6.230000000E0,-4.400000000E-1,1.073403000E1
7.715941733E0,9.000000000E0,6.800000000E0,-3.800000000E-1,1.128646978E1
7.725373322E0,8.950000000E0,7.390000000E0,-7.500000000E-1,1.163086841E1
7.736081213E0,8.890000000E0,8.210000000E0,-1.190000000E0,1.215945311E1
7.745340564E0,8.900000000E0,9.020000000E0,-9.500000000E-1,1.270719875E1
7.754259134E0,8.640000000E0,9.430000000E0,-1.280000000E0,1.285351703E1
7.764072777E0,8.360000000E0,1.031000000E1,-9.300000000E-1,1.330603622E1
7.774380194E0,8.340000000E0,1.108000000E1,-8.100000000E-1,1.389165577E1
7.785686967E0,8.010000000E0,1.215000000E1,-4.900000000E-1,1.456099928E1
7.794624672E0,7.890000000E0,1.257000000E1,-5.700000000E-1,1.485199987E1
7.805261760E0,7.630000000E0,1.351000000E1,1.300000000E-1,1.551624632E1
7.815188153E0,7.430000000E0,1.406000000E1,4.400000000E-1,1.590855430E1
7.824083281E0,7.330000000E0,1.473000000E1,7.000000000E-1,1.646790211E1
7.835501255E0,7.000000000E0,1.541000000E1,8.700000000E-1,1.694771371E1
7.846088562E0,6.590000000E0,1.590000000E1,8.300000000E-1,1.723156986E1
7.854975138E0,6.500000000E0,1.623000000E1,1.270000000E0,1.752928407E1
7.866192404E0,6.220000000E0,1.634000000E1,1.130000000E0,1.752029965E1
7.875001687E0,5.970000000E0,1.649000000E1,1.140000000E0,1.757443029E1
7.883779664E0,5.670000000E0,1.651000000E1,1.000000000E0,1.748510795E1
7.893274317E0,5.560000000E0,1.654000000E1,5.900000000E-1,1.745947594E1
7.904588195E0,5.150000000E0,1.636000000E1,6.000000000E-1,1.716193754E1
7.913187268E0,4.820000000E0,1.641000000E1,2.000000000E-1,1.710440002E1
7.924441890E0,4.620000000E0,1.582000000E1,-4.400000000E-1,1.648667341E1
7.934776725E0,4.540000000E0,1.547000000E1,-7.900000000E-1,1.614176570E1
7.943477880E0,4.260000000E0,1.529000000E1,-1.270000000E0,1.592308387E1
7.953683655E0,4.070000000E0,1.477000000E1,-1.540000000E0,1.539770762E1
7.963560027E0,3.870000000E0,1.429000000E1,-1.630000000E0,1.489422371E1
7.973751981E0,3.600000000E0,1.349000000E1,-2.250000000E0,1.414222755E1
7.984463591E0,3.360000000E0,1.273000000E1,-2.490000000E0,1.339935073E1
7.994999449E0,3.150000000E0,1.236000000E1,-2.430000000E0,1.298449075E1
8.006491131E0,3.140000000E0,1.149000000E1,-2.820000000E0,1.224059231E1
8.015461138E0,2.850000000E0,1.115000000E1,-2.730000000E0,1.182784427E1
8.026399705E0,2.670000000E0,1.029000000E1,-2.210000000E0,1.085804310E1
8.036132984E0,2.630000000E0,9.810000000E0,-2.240000000E0,1.040050960E1
8.046982906E0,2.290000000E0,9.520000000E0,-1.580000000E0,9.918210524E0
8.058158244E0,2.090000000E0,9.110000000E0,-9.700000000E-1,9.396866499E0
8.069634238E0,1.780000000E0,8.690000000E0,-5.100000000E-1,8.885077377E0
8.078932364E0,1.590000000E0,8.430000000E0,-2.500000000E-1,8.582278252E0
8.088791179E0,1.000000000E0,8.240000000E0,3.400000000E-1,8.307418372E0
8.100119516E0,7.600000000E-1,7.880000000E0,1.090000000E0,7.991251466E0
8.111456732E0,5.800000000E-1,7.720000000E0,1.820000000E0,7.952810824E0
8.121075353E0,7.000000000E-2,7.740000000E0,2.050000000E0,8.007184274E0
8.132395981E0,-2.000000000E-1,7.740000000E0,2.410000000E0,8.108988840E0
8.142113655E0,-8.500000000E-1,7.600000000E0,2.560000000E0,8.064496264E0
8.151737953E0,-1.310000000E0,7.530000000E0,2.520000000E0,8.047819580E0
8.162507811E0,-1.490000000E0,7.570000000E0,2.650000000E0,8.157665107E0
8.172421447E0,-2.120000000E0,7.500000000E0,2.240000000E0,8.109377288E0
8.182266042E0,-2.560000000E0,7.390000000E0,2.240000000E0,8.135311918E0
8.191924399E0,-2.890000000E0,7.560000000E0,2.170000000E0,8.379415254E0
8.201722811E0,-3.640000000E0,7.490000000E0,1.520000000E0,8.465228881E0
8.210642264E0,-3.850000000E0,7.110000000E0,1.400000000E0,8.205766265E0
8.219325375E0,-4.510000000E0,7.190000000E0,1.080000000E0,8.555851799E0
8.230087355E0,-5.130000000E0,7.010000000E0,3.500000000E-1,8.693647106E0
8.240280855E0,-5.680000000E0,6.960000000E0,2.900000000E-1,8.988220069E0
8.250796527E0,-6.140000000E0,6.750000000E0,-4.000000000E-1,9.133569948E0
8.261703533E0,-6.730000000E0,6.660000000E0,-3.800000000E-1,9.475911566E0
8.270893852E0,-7.050000000E0,6.550000000E0,-9.000000000E-1,9.665143558E0
8.280095170E0,-7.800000000E0,6.490000000E0,-9.200000000E-1,1.018854749E1
8.289428896E0,-8.250000000E0,6.570000000E0,-8.300000000E-1,1.057905005E1
8.298840671E0,-8.640000000E0,6.270000000E0,-9.000000000E-1,1.071319280E1
8.309622744E0,-8.950000000E0,6.440000000E0,-9.900000000E-1,1.107051038E1
8.319245289E0,-9.270000000E0,6.300000000E0,-9.900000000E-1,1.125179986E1
8.328714855E0,-9.720000000E0,6.000000000E0,-5.900000000E-1,1.143794125E1
8.339123760E0,-1.000000000E1,6.030000000E0,-3.400000000E-1,1.168231570E1
8.348183472E0,-1.025000000E1,6.020000000E0,-3.500000000E-1,1.189224117E1
8.357002732E0,-1.068000000E1,5.630000000E0,6.000000000E-2,1.207323072E1
8.367594132E0,-1.080000000E1,5.660000000E0,6.200000000E-1,1.220901306E1
8.378363468E0,-1.068000000E1,5.510000000E0,6.900000000E-1,1.203738344E1
8.387752561E0,-1.098000000E1,5.340000000E0,7.100000000E-1,1.223029435E1
8.398160685E0,-1.079000000E1,5.220000000E0,1.080000000E0,1.203490341E1
8.406762915E0,-1.092000000E1,5.060000000E0,1.040000000E0,1.208021523E1
8.416475872E0,-1.093000000E1,5.150000000E0,1.260000000E0,1.214804511E1
8.426709747E0,-1.086000000E1,4.880000000E0,9.600000000E-1,1.194468920E1
8.435970002E0,-1.059000000E1,4.860000000E0,5.600000000E-1,1.166538898E1
8.445514647E0,-1.031000000E1,4.950000000E0,4.000000000E-1,1.144371443E1
8.455843296E0,-9.940000000E0,4.640000000E0,8.000000000E-2,1.096994075E1
8.466112989E0,-9.550000000E0,4.530000000E0,9.000000000E-2,1.057031220E1
8.475075561E0,-9.130000000E0,4.670000000E0,-5.600000000E-1,1.027031645E1
8.485695307E0,-8.640000000E0,4.460000000E0,-1.010000000E0,9.775546021E0
8.494435395E0,-8.340000000E0,4.380000000E0,-1.060000000E0,9.479641343E0
8.505844569E0,-7.600000000E0,4.170000000E0,-1.880000000E0,8.870360759E0
8.514951655E0,-6.790000000E0,4.260000000E0,-1.980000000E0,8.256639752E0
8.524212299E0,-6.510000000E0,4.100000000E0,-2.070000000E0,7.967119931E0
8.533313201E0,-5.640000000E0,4.110000000E0,-2.270000000E0,7.338569343E0
8.544787698E0,-4.910000000E0,3.990000000E0,-2.770000000E0,6.906598294E0
8.554147483E0,-4.140000000E0,3.830000000E0,-2.620000000E0,6.218753894E0
8.564463359E0,-3.490000000E0,4.070000000E0,-2.630000000E0,5.971758535E0
8.575935262E0,-2.590000000E0,3.960000000E0,-2.160000000E0,5.201470946E0
8.587285465E0,-1.650000000E0,4.020000000E0,-2.020000000E0,4.792003756E0
8.595912515E0,-8.300000000E-1,3.770000000E0,-1.710000000E0,4.222072951E0
8.605976067E0,-2.500000000E-1,3.750000000E0,-1.200000000E0,3.945250309E0
8.616279981E0,4.600000000E-1,3.690000000E0,-7.500000000E-1,3.793441709E0
8.626887166E0,1.250000000E0,3.740000000E0,1.100000000E-1,3.944895436E0
8.636394894E0,2.250000000E0,3.750000000E0,4.000000000E-1,4.391469003E0
8.645878620E0,2.740000000E0,3.710000000E0,9.500000000E-1,4.708948927E0
8.654391472E0,3.260000000E0,3.750000000E0,1.290000000E0,5.133634190E0
8.662997182E0,4.000000000E0,3.780000000E0,1.710000000E0,5.763028718E0
8.673147354E0,4.740000000E0,4.000000000E0,2.030000000E0,6.525986515E0
8.681875015E0,5.180000000E0,3.890000000E0,2.290000000E0,6.870851476E0
8.690982459E0,5.530000000E0,4.050000000E0,2.630000000E0,7.341682369E0
8.700482274E0,6.120000000E0,3.830000000E0,2.450000000E0,7.624027807E0
8.709193688E0,6.500000000E0,3.920000000E0,2.700000000E0,8.056450831E0
8.717786268E0,6.800000000E0,4.250000000E0,2.440000000E0,8.381891195E0
8.729067029E0,7.580000000E0,4.050000000E0,2.110000000E0,8.849350259E0
8.738872655E0,7.740000000E0,4.190000000E0,1.850000000E0,8.993675556E0
8.747987308E0,7.910000000E0,4.520000000E0,1.940000000E0,9.314617544E0
8.758612664E0,8.440000000E0,4.690000000E0,1.100000000E0,9.718009055E0
8.767141000E0,8.650000000E0,4.910000000E0,8.700000000E-1,9.984362774E0
8.776376052E0,8.750000000E0,5.380000000E0,7.800000000E-1,1.030122808E1
8.787758300E0,8.690000000E0,5.860000000E0,-7.000000000E-2,1.048144074E1
8.798951371E0,8.740000000E0,6.260000000E0,-4.100000000E-1,1.075840602E1
8.809359147E0,8.880000000E0,6.970000000E0,-7.000000000E-1,1.131040671E1
8.818138755E0,8.890000000E0,7.480000000E0,-6.300000000E-1,1.163526536E1
8.827592908E0,8.950000000E0,8.240000000E0,-1.150000000E0,1.221976268E1
8.836176705E0,8.910000000E0,8.570000000E0,-8.200000000E-1,1.238972962E1
8.845334278E0,8.790000000E0,9.300000000E0,-1.260000000E0,1.285852635E1
8.853910581E0,8.480000000E0,1.006000000E1,-1.000000000E0,1.319522641E1
8.862789072E0,8.420000000E0,1.056000000E1,-7.900000000E-1,1.352900957E1
8.873188715E0,8.080000000E0,1.164000000E1,-7.100000000E-1,1.418732181E1
8.881990044E0,8.040000000E0,1.235000000E1,-5.400000000E-1,1.474637922E1
8.890957333E0,7.690000000E0,1.279000000E1,-3.400000000E-1,1.492768569E1
8.902165757E0,7.450000000E0,1.373000000E1,-1.200000000E-1,1.562145320E1
8.911672114E0,7.220000000E0,1.417000000E1,5.200000000E-1,1.591187293E1
8.921171105E0,7.050000000E0,1.498000000E1,4.800000000E-1,1.656300999E1
8.929930723E0,6.830000000E0,1.519000000E1,8.000000000E-1,1.667408168E1
8.940818515E0,6.690000000E0,1.561000000E1,9.600000000E-1,1.701028512E1
8.951347647E0,6.200000000E0,1.600000000E1,1.270000000E0,1.720618784E1
8.961489045E0,5.960000000E0,1.640000000E1,9.400000000E-1,1.747470171E1
8.971842784E0,5.890000000E0,1.642000000E1,8.400000000E-1,1.746465287E1
8.980643926E0,5.680000000E0,1.681000000E1,1.100000000E0,1.777775295E1
8.989924844E0,5.470000000E0,1.666000000E1,7.100000000E-1,1.754937606E1
9.000175768E0,5.230000000E0,1.652000000E1,5.000000000E-1,1.733531944E1
9.011532464E0,4.960000000E0,1.629000000E1,1.000000000E-1,1.702867288E1
9.022483860E0,4.680000000E0,1.588000000E1,-2.400000000E-1,1.655700456E1
9.032906039E0,4.530000000E0,1.563000000E1,-6.400000000E-1,1.628580363E1
9.042962495E0,4.090000000E0,1.511000000E1,-1.120000000E0,1.569377584E1
9.051507891E0,3.970000000E0,1.458000000E1,-1.810000000E0,1.521885015E1
9.062680040E0,3.940000000E0,1.392000000E1,-1.780000000E0,1.457595280E1
9.071380603E0,3.580000000E0,1.336000000E1,-2.440000000E0,1.404491367E1
9.080267846E0,3.540000000E0,1.290000000E1,-2.240000000E0,1.356315597E1
9.090847061E0,3.240000000E0,1.228000000E1,-2.820000000E0,1.300955034E1
9.101783493E0,3.100000000E0,1.154000000E1,-2.480000000E0,1.220376991E1
9.112643145E0,3.030000000E0,1.122000000E1,-2.470000000E0,1.188150664E1
9.122500357E0,2.770000000E0,1.046000000E1,-2.600000000E0,1.112854438E1
9.131531525E0,2.510000000E0,1.010000000E1,-2.000000000E0,1.059764597E1
9.140137431E0,2.270000000E0,9.540000000E0,-1.790000000E0,9.968380009E0
9.151191570E0,2.200000000E0,9.260000000E0,-1.560000000E0,9.644749867E0
9.162624662E0,1.880000000E0,8.890000000E0,-6.300000000E-1,9.108424672E0
9.171857069E0,1.560000000E0,8.420000000E0,-2.900000000E-1,8.568202845E0
9.182955298E0,1.410000000E0,8.460000000E0,2.300000000E-1,8.579778552E0
9.192662891E0,1.060000000E0,7.990000000E0,9.800000000E-1,8.119365739E0
9.202096922E0,8.600000000E-1,7.890000000E0,1.070000000E0,8.008532949E0
9.212112385E0,4.200000000E-1,7.940000000E0,1.500000000E0,8.091353410E0
9.220636889E0,2.000000000E-1,7.740000000E0,2.180000000E0,8.043631021E0
9.230465033E0,-2.900000000E-1,7.870000000E0,2.110000000E0,8.153103703E0
9.239563698E0,-5.900000000E-1,7.600000000E0,2.640000000E0,8.067075059E0
9.250201069E0,-9.800000000E-1,7.580000000E0,2.450000000E0,8.026163467E0
9.260208784E0,-1.680000000E0,7.660000000E0,2.760000000E0,8.313579253E0
9.271315341E0,-2.050000000E0,7.660000000E0,2.450000000E0,8.299433716E0
9.282505286E0,-2.540000000E0,7.600000000E0,2.340000000E0,8.347885960E0
9.291955563E0,-3.190000000E0,7.330000000E0,2.070000000E0,8.257717602E0
9.301296714E0,-3.400000000E0,7.350000000E0,1.650000000E0,8.264683902E0
9.312614105E0,-4.010000000E0,7.230000000E0,1.280000000E0,8.366086301E0
9.322626098E0,-4.450000000E0,7.240000000E0,9.300000000E-1,8.548976547E0
9.331415645E0,-5.110000000E0,7.010000000E0,3.200000000E-1,8.680702737E0
9.340053300E0,-5.530000000E0,7.140000000E0,3.600000000E-1,9.038257575E0
9.351524577E0,-5.980000000E0,6.990000000E0,-1.000000000E-1,9.199483681E0
9.361762067E0,-6.680000000E0,6.710000000E0,-7.200000000E-1,9.495519996E0
9.370425546E0,-6.970000000E0,6.670000000E0,-9.200000000E-1,9.691037096E0
9.380459313E0,-7.610000000E0,6.580000000E0,-1.010000000E0,1.011081599E1
9.390471626E0,-8.110000000E0,6.680000000E0,-9.200000000E-1,1.054708016E1
9.400277790E0,-8.580000000E0,6.410000000E0,-1.060000000E0,1.076234640E1
9.411631631E0,-9.080000000E0,6.340000000E0,-1.080000000E0,1.112692231E1
9.422977947E0,-9.450000000E0,6.330000000E0,-6.800000000E-1,1.139446357E1
9.431852850E0,-9.850000000E0,6.040000000E0,-7.800000000E-1,1.158069514E1
9.440808012E0,-9.900000000E0,6.130000000E0,-3.000000000E-1,1.164804275E1
9.450530478E0,-1.012000000E1,5.790000000E0,-1.000000000E-2,1.165927099E1
9.461532557E0,-1.068000000E1,5.570000000E0,-3.000000000E-2,1.204525633E1
9.471903815E0,-1.088000000E1,5.490000000E0,4.800000000E-1,1.219610184E1
9.482593306E0,-1.104000000E1,5.570000000E0,7.500000000E-1,1.238826057E1
9.492821481E0,-1.078000000E1,5.350000000E0,1.130000000E0,1.208750595E1
9.501951652E0,-1.110000000E1,5.410000000E0,9.100000000E-1,1.238168809E1
9.512904948E0,-1.084000000E1,5.180000000E0,1.050000000E0,1.205987148E1
9.521447011E0,-1.089000000E1,5.150000000E0,1.270000000E0,1.211311273E1
9.532042464E0,-1.076000000E1,4.920000000E0,7.600000000E-1,1.185586775E1
9.541125482E0,-1.056000000E1,4.910000000E0,9.800000000E-1,1.168683447E1
9.551038757E0,-1.014000000E1,4.850000000E0,4.600000000E-1,1.124960888E1
9.562464156E0,-1.001000000E1,4.630000000E0,9.000000000E-2,1.102928375E1
9.572581264E0,-9.330000000E0,4.580000000E0,4.000000000E-2,1.039359899E1
9.581252110E0,-9.060000000E0,4.630000000E0,-6.100000000E-1,1.019277195E1
9.591038450E0,-8.700000000E0,4.580000000E0,-1.080000000E0,9.891046456E0
9.601519251E0,-8.160000000E0,4.290000000E0,-1.520000000E0,9.343452253E0
9.610189371E0,-7.520000000E0,4.130000000E0,-1.600000000E0,8.727387925E0
9.619447333E0,-6.960000000E0,4.330000000E0,-1.940000000E0,8.423425669E0
9.628002341E0,-6.530000000E0,4.140000000E0,-2.380000000E0,8.089802223E0
9.638122546E0,-5.840000000E0,4.260000000E0,-2.470000000E0,7.638985535E0
9.647766978E0,-5.130000000E0,4.130000000E0,-2.690000000E0,7.114063536E0
9.657778048E0,-4.250000000E0,3.950000000E0,-2.440000000E0,6.294330783E0
9.667165559E0,-3.680000000E0,4.070000000E0,-2.620000000E0,6.080435840E0
9.677635980E0,-2.780000000E0,3.930000000E0,-2.310000000E0,5.339419444E0
9.686655238E0,-2.160000000E0,3.960000000E0,-1.930000000E0,4.906332643E0
9.697875195E0,-1.320000000E0,3.990000000E0,-1.880000000E0,4.604009122E0
9.709255439E0,-4.700000000E-1,3.860000000E0,-1.030000000E0,4.022611092E0
9.719234420E0,3.600000000E-1,3.970000000E0,-7.800000000E-1,4.061883799E0
9.729130590E0,1.040000000E0,3.780000000E0,-1.900000000E-1,3.925060509E0
9.740209440E0,1.940000000E0,3.770000000E0,2.100000000E-1,4.245067726E0
9.749578954E0,2.420000000E0,3.870000000E0,9.000000000E-1,4.652236022E0
9.760488271E0,3.230000000E0,3.800000000E0,1.440000000E0,5.191001830E0
9.769850194E0,4.040000000E0,3.920000000E0,1.780000000E0,5.903930894E0
9.780510088E0,4.540000000E0,3.890000000E0,2.290000000E0,6.402171507E0
9.790012122E0,5.260000000E0,3.990000000E0,2.350000000E0,7.007867008E0
9.800319927E0,5.870000000E0,4.060000000E0,2.300000000E0,7.498699887E0
9.811597532E0,6.320000000E0,4.020000000E0,2.820000000E0,8.003449256E0
9.820260506E0,6.560000000E0,4.190000000E0,2.620000000E0,8.213044502E0
9.831182270E0,7.250000000E0,4.230000000E0,2.510000000E0,8.761021630E0
9.841307807E0,7.590000000E0,4.370000000E0,2.280000000E0,9.050049724E0
9.850945010E0,7.780000000E0,4.220000000E0,1.720000000E0,9.016385085E0
9.860495836E0,8.250000000E0,4.410000000E0,1.510000000E0,9.475795481E0
9.869204072E0,8.330000000E0,4.840000000E0,1.080000000E0,9.694374658E0
9.878479208E0,8.360000000E0,5.020000000E0,9.800000000E-1,9.800530598E0
9.888848619E0,8.520000000E0,5.580000000E0,6.600000000E-1,1.020599824E1
9.897641389E0,8.680000000E0,5.780000000E0,2.200000000E-1,1.043068550E1
9.908149611E0,8.890000000E0,6.410000000E0,-8.000000000E-2,1.096022810E1
9.919536371E0,8.990000000E0,6.860000000E0,-6.700000000E-1,1.132822140E1
9.930978699E0,8.710000000E0,7.700000000E0,-1.080000000E0,1.167563703E1
9.942146423E0,8.620000000E0,8.540000000E0,-1.050000000E0,1.217942938E1
9.953066256E0,8.730000000E0,9.300000000E0,-1.230000000E0,1.281467128E1
9.962100116E0,8.540000000E0,9.790000000E0,-1.140000000E0,1.304129211E1
9.973510583E0,8.380000000E0,1.069000000E1,-1.060000000E0,1.362439356E1
9.982618753E0,8.350000000E0,1.139000000E1,-9.400000000E-1,1.415408775E1
9.993725902E0,8.170000000E0,1.216000000E1,-4.400000000E-1,1.465633310E1
1.000485952E1,7.950000000E0,1.301000000E1,-2.000000000E-1,1.524803594E1
1.001522525E1,7.650000000E0,1.389000000E1,2.000000000E-1,1.585858127E1
1.002528917E1,7.140000000E0,1.449000000E1,5.600000000E-1,1.616333196E1
1.003439044E1,6.970000000E0,1.482000000E1,4.200000000E-1,1.638260358E1
1.004444885E1,6.870000000E0,1.546000000E1,9.900000000E-1,1.694663978E1
1.005382071E1,6.770000000E0,1.596000000E1,1.060000000E0,1.736888310E1
1.006269835E1,6.240000000E0,1.607000000E1,1.060000000E0,1.727154017E1
1.007158292E1,6.160000000E0,1.648000000E1,1.300000000E0,1.764159857E1
1.008248644E1,5.850000000E0,1.666000000E1,1.040000000E0,1.768784046E1
1.009375365E1,5.580000000E0,1.678000000E1,6.600000000E-1,1.769577351E1
1.010267925E1,5.330000000E0,1.648000000E1,5.300000000E-1,1.732859487E1
1.011121904E1,5.130000000E0,1.668000000E1,4.000000000E-1,1.745563806E1
1.012050994E1,4.910000000E0,1.653000000E1,3.000000000E-1,1.724641992E1
1.012941325E1,4.670000000E0,1.604000000E1,-9.000000000E-2,1.670624434E1
1.013847913E1,4.630000000E0,1.587000000E1,-3.800000000E-1,1.653596686E1
1.014872911E1,4.390000000E0,1.527000000E1,-1.130000000E0,1.592865029E1
1.015849599E1,4.290000000E0,1.500000000E1,-1.410000000E0,1.566499920E1
1.016828368E1,4.070000000E0,1.454000000E1,-1.630000000E0,1.518661911E1
1.017740052E1,4.010000000E0,1.406000000E1,-1.890000000E0,1.474231325E1
1.018789429E1,3.600000000E0,1.350000000E1,-2.290000000E0,1.415818138E1
1.019726282E1,3.620000000E0,1.275000000E1,-2.600000000E0,1.350655026E1
1.020696026E1,3.270000000E0,1.212000000E1,-2.680000000E0,1.283626503E1
1.021685050E1,3.180000000E0,1.180000000E1,-2.480000000E0,1.247007618E1
1.022806377E1,3.020000000E0,1.089000000E1,-2.430000000E0,1.155929929E1
1.023730284E1,2.690000000E0,1.048000000E1,-2.510000000E0,1.110705181E1
1.024795884E1,2.490000000E0,9.960000000E0,-1.870000000E0,1.043544920E1
1.025738694E1,2.360000000E0,9.720000000E0,-2.000000000E0,1.020039215E1
1.026857022E1,1.930000000E0,9.160000000E0,-1.430000000E0,9.469709605E0
1.027825246E1,1.840000000E0,8.970000000E0,-8.700000000E-1,9.198010654E0
1.028826795E1,1.440000000E0,8.620000000E0,-1.700000000E-1,8.741104049E0
1.029939959E1,1.180000000E0,8.410000000E0,2.900000000E-1,8.497328992E0
1.030991788E1,1.010000000E0,8.200000000E0,8.800000000E-1,8.308700259E0
1.031870095E1,8.600000000E-1,8.100000000E0,1.440000000E0,8.271831720E0
1.032761146E1,5.800000000E-1,7.800000000E0,1.540000000E0,7.971699944E0
1.033908366E1,-7.000000000E-2,7.730000000E0,1.880000000E0,7.955639509E0
1.034767097E1,-4.300000000E-1,7.780000000E0,2.240000000E0,8.107459528E0
1.035707359E1,-6.600000000E-1,7.720000000E0,2.510000000E0,8.144574881E0
1.036845027E1,-1.160000000E0,7.740000000E0,2.420000000E0,8.192044922E0
1.037699559E1,-1.540000000E0,7.710000000E0,2.380000000E0,8.214627198E0
1.038597978E1,-1.800000000E0,7.490000000E0,2.660000000E0,8.149582811E0
1.039511988E1,-2.250000000E0,7.370000000E0,2.640000000E0,8.145489549E0
1.040387905E1,-2.710000000E0,7.530000000E0,2.410000000E0,8.357816701E0
1.041379493E1,-3.170000000E0,7.450000000E0,1.840000000E0,8.302830843E0
1.042407225E1,-3.700000000E0,7.230000000E0,1.520000000E0,8.262765881E0
1.043352721E1,-4.150000000E0,7.080000000E0,1.340000000E0,8.315317192E0
1.044235316E1,-4.510000000E0,7.000000000E0,1.060000000E0,8.394265900E0
1.045328603E1,-5.070000000E0,6.990000000E0,3.100000000E-1,8.640665484E0
1.046419944E1,-5.620000000E0,6.900000000E0,1.900000000E-1,8.901151611E0
1.047438574E1,-6.180000000E0,6.780000000E0,-2.800000000E-1,9.178191543E0
1.048329897E1,-6.900000000E0,6.640000000E0,-8.100000000E-1,9.610187303E0
1.049342470E1,-7.280000000E0,6.590000000E0,-8.800000000E-1,9.859051679E0
1.050381327E1,-7.660000000E0,6.540000000E0,-1.250000000E0,1.014936944E1
1.051359815E1,-8.280000000E0,6.350000000E0,-1.110000000E0,1.049347416E1
1.052468974E1,-8.650000000E0,6.280000000E0,-1.030000000E0,1.073879882E1
1.053435988E1,-9.240000000E0,6.250000000E0,-8.000000000E-1,1.118392149E1
1.054439254E1,-9.560000000E0,6.290000000E0,-8.800000000E-1,1.147746052E1
1.055323497E1,-9.800000000E0,6.200000000E0,-5.300000000E-1,1.160865625E1
1.056342562E1,-1.023000000E1,5.920000000E0,-2.700000000E-1,1.182252934E1
1.057422497E1,-1.039000000E1,5.700000000E0,-5.000000000E-2,1.185093245E1
1.058491874E1,-1.068000000E1,5.640000000E0,2.900000000E-1,1.208122924E1
1.059418968E1,-1.062000000E1,5.670000000E0,4.600000000E-1,1.204760972E1
1.060566528E1,-1.094000000E1,5.450000000E0,7.900000000E-1,1.224786512E1
1.061632508E1,-1.098000000E1,5.390000000E0,9.000000000E-1,1.226468508E1
1.062609634E1,-1.084000000E1,5.350000000E0,1.240000000E0,1.215177765E1
1.063584107E1,-1.087000000E1,5.220000000E0,8.800000000E-1,1.209047973E1
1.064667904E1,-1.094000000E1,5.170000000E0,1.210000000E0,1.216045229E1
1.065570609E1,-1.073000000E1,4.810000000E0,1.040000000E0,1.180468551E1
1.066612497E1,-1.037000000E1,4.780000000E0,4.700000000E-1,1.142830696E1
1.067678149E1,-1.022000000E1,4.590000000E0,5.400000000E-1,1.121642100E1
1.068683051E1,-9.870000000E0,4.670000000E0,4.000000000E-2,1.091913000E1
1.069795011E1,-9.310000000E0,4.600000000E0,-3.000000000E-1,1.038874872E1
1.070785601E1,-8.920000000E0,4.390000000E0,-6.900000000E-1,9.965671076E0
1.071775069E1,-8.510000000E0,4.240000000E0,-9.800000000E-1,9.558143125E0
1.072710473E1,-7.920000000E0,4.310000000E0,-1.470000000E0,9.135830559E0
1.073836285E1,-7.240000000E0,4.130000000E0,-1.800000000E0,8.527279754E0
1.074781166E1,-6.870000000E0,4.070000000E0,-2.290000000E0,8.306978994E0
1.075839747E1,-6.110000000E0,4.070000000E0,-2.620000000E0,7.794959910E0
1.076812553E1,-5.440000000E0,4.220000000E0,-2.470000000E0,7.314567656E0
1.077943180E1,-4.440000000E0,3.950000000E0,-2.370000000E0,6.397890277E0
1.079077568E1,-3.900000000E0,4.030000000E0,-2.770000000E0,6.254902078E0
1.079936578E1,-3.160000000E0,3.880000000E0,-2.220000000E0,5.474340143E0
1.081084939E1,-2.350000000E0,3.850000000E0,-2.210000000E0,5.022857752E0
1.082116419E1,-1.390000000E0,3.730000000E0,-1.730000000E0,4.340264969E0
1.082988575E1,-6.900000000E-1,3.730000000E0,-1.570000000E0,4.105350168E0
1.083987685E1,-2.000000000E-1,3.920000000E0,-9.000000000E-1,4.026959151E0
1.084852526E1,7.300000000E-1,3.790000000E0,-6.000000000E-1,3.906020993E0
1.085867194E1,1.420000000E0,3.730000000E0,1.000000000E-1,3.992405290E0
1.086772831E1,1.900000000E0,3.980000000E0,3.100000000E-1,4.421142386E0
1.087733213E1,2.820000000E0,3.950000000E0,8.200000000E-1,4.922123525E0
1.088674623E1,3.240000000E0,3.750000000E0,1.410000000E0,5.152494541E0
1.089705286E1,4.080000000E0,3.830000000E0,1.580000000E0,5.814782885E0
1.090801995E1,4.510000000E0,3.910000000E0,2.380000000E0,6.425931839E0
1.091932956E1,5.290000000E0,3.800000000E0,2.480000000E0,6.969540874E0
1.092881613E1,5.820000000E0,3.930000000E0,2.800000000E0,7.560244705E0
1.093902520E1,6.460000000E0,3.930000000E0,2.450000000E0,7.948521875E0
1.094754290E1,6.830000000E0,4.160000000E0,2.690000000E0,8.437452222E0
1.095715939E1,7.130000000E0,3.980000000E0,2.320000000E0,8.488798502E0
1.096854150E1,7.380000000E0,4.420000000E0,2.020000000E0,8.836356715E0
1.097739802E1,7.800000000E0,4.280000000E0,1.950000000E0,9.108287435E0
1.098850750E1,8.090000000E0,4.530000000E0,1.580000000E0,9.405604712E0
1.099896502E1,8.550000000E0,4.710000000E0,1.230000000E0,9.838673691E0
1.100834670E1,8.620000000E0,5.290000000E0,8.100000000E-1,1.014616184E1
1.101918118E1,8.670000000E0,5.660000000E0,2.400000000E-1,1.035674177E1
1.102854903E1,8.750000000E0,5.800000000E0,1.300000000E-1,1.049854276E1
1.103973347E1,8.950000000E0,6.510000000E0,-4.600000000E-1,1.107674140E1
1.104848175E1,8.730000000E0,6.950000000E0,-7.000000000E-1,1.118058138E1
1.105733873E1,8.970000000E0,7.550000000E0,-6.600000000E-1,1.174304049E1
1.106808876E1,8.870000000E0,8.150000000E0,-8.900000000E-1,1.207855538E1
1.107793630E1,8.700000000E0,9.040000000E0,-9.400000000E-1,1.258154204E1
1.108687869E1,8.700000000E0,9.420000000E0,-8.500000000E-1,1.285102720E1
1.109691899E1,8.460000000E0,1.037000000E1,-8.300000000E-1,1.340885528E1
1.110630990E1,8.220000000E0,1.087000000E1,-1.020000000E0,1.366622479E1
1.111645785E1,8.130000000E0,1.176000000E1,-4.500000000E-1,1.430374077E1
1.112718899E1,7.790000000E0,1.246000000E1,-4.300000000E-1,1.470104078E1
1.113825951E1,7.560000000E0,1.327000000E1,-1.200000000E-1,1.527288120E1
1.114693651E1,7.490000000E0,1.385000000E1,-2.000000000E-2,1.574557081E1
1.115721357E1,7.380000000E0,1.451000000E1,3.100000000E-1,1.628191021E1
1.116866457E1,6.890000000E0,1.495000000E1,6.700000000E-1,1.647493551E1
1.117854396E1,6.750000000E0,1.541000000E1,6.100000000E-1,1.683456860E1
1.118935266E1,6.650000000E0,1.615000000E1,1.100000000E0,1.750014286E1
1.119814444E1,6.380000000E0,1.617000000E1,9.800000000E-1,1.741073519E1
1.120926496E1,6.130000000E0,1.645000000E1,1.150000000E0,1.759266609E1
1.121951112E1,5.810000000E0,1.653000000E1,1.090000000E0,1.755520151E1
1.123067591E1,5.510000000E0,1.669000000E1,8.500000000E-1,1.759655364E1
1.124153727E1,5.260000000E0,1.672000000E1,3.100000000E-1,1.753060467E1
1.125264499E1,5.020000000E0,1.631000000E1,2.200000000E-1,1.706648470E1
1.126131687E1,4.790000000E0,1.606000000E1,-2.000000000E-1,1.676030131E1
1.127196345E1,4.530000000E0,1.571000000E1,-4.300000000E-1,1.635572988E1
1.128105439E1,4.310000000E0,1.524000000E1,-7.900000000E-1,1.585742098E1
1.129035182E1,4.070000000E0,1.484000000E1,-1.270000000E0,1.544031735E1
1.129982617E1,3.990000000E0,1.435000000E1,-1.510000000E0,1.497072811E1
1.131010011E1,3.940000000E0,1.390000000E1,-2.150000000E0,1.460671421E1
1.132048369E1,3.680000000E0,1.355000000E1,-2.100000000E0,1.419700320E1
1.133177802E1,3.330000000E0,1.260000000E1,-2.250000000E0,1.322540737E1
1.134031618E1,3.410000000E0,1.225000000E1,-2.380000000E0,1.293657605E1
1.134939649E1,2.970000000E0,1.161000000E1,-2.460000000E0,1.223374840E1
1.135898250E1,3.100000000E0,1.102000000E1,-2.610000000E0,1.174148628E1
1.136993652E1,2.800000000E0,1.073000000E1,-2.180000000E0,1.130156184E1
1.138008625E1,2.560000000E0,9.980000000E0,-2.110000000E0,1.051694347E1
1.139012222E1,2.300000000E0,9.540000000E0,-1.950000000E0,1.000520365E1
1.140090278E1,2.210000000E0,9.350000000E0,-1.350000000E0,9.702015255E0
1.141136795E1,1.680000000E0,8.790000000E0,-7.100000000E-1,8.977226743E0
1.142073752E1,1.450000000E0,8.500000000E0,-3.300000000E-1,8.629101923E0
1.142949887E1,1.400000000E0,8.540000000E0,2.000000000E-1,8.656304061E0
1.143938579E1,1.050000000E0,8.080000000E0,3.100000000E-1,8.153833454E0
1.145052629E1,7.500000000E-1,8.120000000E0,1.320000000E0,8.260708202E0
1.146082071E1,4.700000000E-1,7.820000000E0,1.760000000E0,8.029377311E0
1.146948058E1,1.000000000E-2,7.840000000E0,1.880000000E0,8.062263950E0
1.147930081E1,-1.000000000E-2,7.690000000E0,2.400000000E0,8.055817774E0
1.148895465E1,-4.800000000E-1,7.650000000E0,2.260000000E0,7.991276494E0
1.149920192E1,-1.090000000E0,7.810000000E0,2.500000000E0,8.272496600E0
1.150946330E1,-1.290000000E0,7.760000000E0,2.450000000E0,8.239186853E0
1.152081730E1,-1.850000000E0,7.450000000E0,2.640000000E0,8.117548891E0
1.153033158E1,-2.230000000E0,7.590000000E0,2.620000000E0,8.333390666E0
1.154005587E1,-2.660000000E0,7.320000000E0,2.400000000E0,8.149723922E0
1.155039641E1,-3.070000000E0,7.310000000E0,1.670000000E0,8.102462589E0
1.156155558E1,-3.920000000E0,7.150000000E0,1.630000000E0,8.315395360E0
1.157217401E1,-4.150000000E0,7.270000000E0,1.110000000E0,8.444376827E0
1.158208667E1,-4.830000000E0,7.220000000E0,5.500000000E-1,8.704010570E0
1.159303037E1,-5.490000000E0,7.140000000E0,4.600000000E-1,9.018386774E0
1.160298629E1,-5.930000000E0,7.060000000E0,-9.000000000E-2,9.220444675E0
1.161437685E1,-6.510000000E0,6.820000000E0,-7.000000000E-1,9.454231857E0
1.162372435E1,-6.790000000E0,6.660000000E0,-7.700000000E-1,9.542148605E0
1.163260653E1,-7.340000000E0,6.510000000E0,-8.000000000E-1,9.843561347E0
1.164359773E1,-8.020000000E0,6.550000000E0,-8.500000000E-1,1.038967757E1
1.165298963E1,-8.210000000E0,6.630000000E0,-1.220000000E0,1.062305982E1
1.166403181E1,-8.760000000E0,6.340000000E0,-9.900000000E-1,1.085878907E1
1.167436003E1,-9.050000000E0,6.290000000E0,-1.130000000E0,1.107896656E1
1.168438691E1,-9.690000000E0,6.290000000E0,-5.500000000E-1,1.156558256E1
1.169314800E1,-9.690000000E0,6.180000000E0,-8.100000000E-1,1.152148428E1
1.170400695E1,-1.000000000E1,6.010000000E0,-6.000000000E-2,1.166720618E1
1.171270472E1,-1.053000000E1,5.870000000E0,-3.000000000E-2,1.205565013E1
1.172410017E1,-1.061000000E1,5.620000000E0,3.800000000E-1,1.201253096E1
1.173523110E1,-1.091000000E1,5.680000000E0,6.200000000E-1,1.231563640E1
1.174464000E1,-1.087000000E1,5.460000000E0,7.400000000E-1,1.218671818E1
1.175352360E1,-1.108000000E1,5.460000000E0,8.700000000E-1,1.238284701E1
1.176468063E1,-1.081000000E1,5.170000000E0,8.800000000E-1,1.201496567E1
1.177462018E1,-1.101000000E1,5.320000000E0,9.600000000E-1,1.226556562E1
1.178349480E1,-1.075000000E1,4.960000000E0,8.400000000E-1,1.186885420E1
1.179349037E1,-1.061000000E1,5.080000000E0,8.300000000E-1,1.179268417E1
1.180273082E1,-1.054000000E1,5.020000000E0,8.600000000E-1,1.170604972E1
1.181245433E1,-1.033000000E1,4.670000000E0,5.800000000E-1,1.135139639E1
1.182287505E1,-9.770000000E0,4.820000000E0,2.800000000E-1,1.089787594E1
1.183412115E1,-9.670000000E0,4.650000000E0,-1.400000000E-1,1.073084340E1
1.184502394E1,-9.140000000E0,4.540000000E0,-3.500000000E-1,1.021144946E1
1.185400696E1,-8.700000000E0,4.340000000E0,-7.500000000E-1,9.751312732E0
1.186393897E1,-8.110000000E0,4.290000000E0,-1.440000000E0,9.287077043E0
1.187391475E1,-7.640000000E0,4.190000000E0,-1.660000000E0,8.870248024E0
1.188538320E1,-7.050000000E0,4.180000000E0,-1.820000000E0,8.395671504E0
1.189414390E1,-6.350000000E0,4.200000000E0,-2.400000000E0,7.982637409E0
1.190417620E1,-5.640000000E0,4.170000000E0,-2.380000000E0,7.406949440E0
1.191541929E1,-4.880000000E0,4.100000000E0,-2.530000000E0,6.857499544E0
1.192511584E1,-4.270000000E0,3.930000000E0,-2.520000000E0,6.326784333E0
1.193440099E1,-3.660000000E0,3.890000000E0,-2.500000000E0,5.897262077E0
1.194456879E1,-3.020000000E0,4.000000000E0,-2.240000000E0,5.489808740E0
1.195402906E1,-2.130000000E0,4.040000000E0,-2.170000000E0,5.056421660E0
1.196531029E1,-1.250000000E0,3.750000000E0,-1.500000000E0,4.227883631E0
1.197406469E1,-6.600000000E-1,3.800000000E0,-1.330000000E0,4.079767150E0
1.198318481E1,2.000000000E-1,3.740000000E0,-1.020000000E0,3.881752182E0
1.199193643E1,5.800000000E-1,3.980000000E0,-4.400000000E-1,4.046035096E0
1.200257209E1,1.560000000E0,3.640000000E0,1.200000000E-1,3.962019687E0
1.201195152E1,2.190000000E0,3.950000000E0,7.200000000E-1,4.573510687E0
1.202315203E1,3.030000000E0,3.920000000E0,1.120000000E0,5.079537381E0
1.203433292E1,3.770000000E0,3.780000000E0,1.560000000E0,5.561915138E0
1.204564208E1,4.240000000E0,3.930000000E0,1.900000000E0,6.085433427E0
1.205491047E1,5.020000000E0,3.850000000E0,2.210000000E0,6.701268537E0
1.206341244E1,5.320000000E0,3.970000000E0,2.330000000E0,7.035069296E0
1.207307525E1,5.920000000E0,3.930000000E0,2.630000000E0,7.576819913E0
1.208446294E1,6.570000000E0,4.160000000E0,2.800000000E0,8.265016636E0
1.209525417E1,6.920000000E0,4.060000000E0,2.590000000E0,8.430782882E0
1.210393315E1,7.260000000E0,4.260000000E0,2.260000000E0,8.715664060E0
1.211454086E1,7.460000000E0,4.300000000E0,1.940000000E0,8.826392241E0
1.212579205E1,7.990000000E0,4.410000000E0,2.020000000E0,9.347117203E0
1.213719521E1,8.150000000E0,4.860000000E0,1.330000000E0,9.581805675E0
1.214784318E1,8.430000000E0,4.880000000E0,1.110000000E0,9.803642180E0
1.215893217E1,8.600000000E0,5.500000000E0,8.000000000E-1,1.023962890E1
1.216995727E1,8.940000000E0,5.970000000E0,3.800000000E-1,1.075680715E1
1.217953229E1,8.890000000E0,6.370000000E0,-1.500000000E-1,1.093761857E1
1.218832942E1,8.950000000E0,6.740000000E0,-2.500000000E-1,1.120681043E1
1.219901181E1,8.760000000E0,7.350000000E0,-7.800000000E-1,1.146160983E1
1.220792255E1,8.770000000E0,8.000000000E0,-6.800000000E-1,1.189013457E1
1.221757515E1,8.910000000E0,8.460000000E0,-9.300000000E-1,1.232171254E1
1.222906235E1,8.530000000E0,9.400000000E0,-1.280000000E0,1.275771531E1
1.223924171E1,8.700000000E0,1.011000000E1,-8.700000000E-1,1.336633832E1
1.224930693E1,8.360000000E0,1.088000000E1,-1.090000000E0,1.376415998E1
1.226065057E1,8.150000000E0,1.157000000E1,-4.800000000E-1,1.416043078E1
1.227000269E1,8.020000000E0,1.232000000E1,-7.400000000E-1,1.471904888E1
1.228150098E1,7.750000000E0,1.293000000E1,-1.000000000E-1,1.507505887E1
1.229273692E1,7.510000000E0,1.366000000E1,-9.000000000E-2,1.558857915E1
1.230232864E1,7.270000000E0,1.426000000E1,3.500000000E-1,1.601009057E1
1.231181035E1,7.150000000E0,1.501000000E1,5.000000000E-1,1.663347829E1
1.232069004E1,6.780000000E0,1.531000000E1,9.500000000E-1,1.677101667E1
1.233193697E1,6.470000000E0,1.598000000E1,8.300000000E-1,1.726007532E1
1.234099440E1,6.340000000E0,1.599000000E1,1.140000000E0,1.723877316E1
1.234952133E1,6.010000000E0,1.625000000E1,1.290000000E0,1.737373593E1
1.236069156E1,5.870000000E0,1.668000000E1,8.100000000E-1,1.770128244E1
1.237098591E1,5.640000000E0,1.661000000E1,1.020000000E0,1.757105859E1
1.238150145E1,5.500000000E0,1.652000000E1,5.100000000E-1,1.741896954E1
1.239220088E1,5.030000000E0,1.660000000E1,5.700000000E-1,1.735470541E1
1.240082886E1,4.940000000E0,1.624000000E1,3.400000000E-1,1.697812711E1
1.240960443E1,4.890000000E0,1.627000000E1,-3.300000000E-1,1.699217173E1
1.241960394E1,4.530000000E0,1.569000000E1,-3.400000000E-1,1.633439928E1
1.242825472E1,4.530000000E0,1.556000000E1,-9.000000000E-1,1.623097348E1
1.243826768E1,4.300000000E0,1.498000000E1,-1.360000000E0,1.564416824E1
1.244897670E1,3.860000000E0,1.461000000E1,-1.430000000E0,1.517882077E1
1.245944893E1,3.790000000E0,1.383000000E1,-2.060000000E0,1.448711842E1
1.246979887E1,3.730000000E0,1.347000000E1,-2.430000000E0,1.418656759E1
1.247843809E1,3.490000000E0,1.276000000E1,-2.540000000E0,1.347031180E1
1.248764805E1,3.380000000E0,1.229000000E1,-2.370000000E0,1.296477535E1
1.249884054E1,3.290000000E0,1.172000000E1,-2.370000000E0,1.240158861E1
1.250771020E1,3.020000000E0,1.121000000E1,-2.590000000E0,1.189506620E1
1.251780987E1,2.780000000E0,1.072000000E1,-2.420000000E0,1.133592519E1
1.252646001E1,2.720000000E0,1.031000000E1,-2.170000000E0,1.088133264E1
1.253777762E1,2.340000000E0,9.650000000E0,-1.690000000E0,1.007244757E1
1.254679231E1,2.000000000E0,9.200000000E0,-1.760000000E0,9.577974734E0
1.255652238E1,1.870000000E0,9.100000000E0,-9.400000000E-1,9.337585341E0
1.256666272E1,1.750000000E0,8.740000000E0,-3.600000000E-1,8.920745485E0
1.257731868E1,1.600000000E0,8.450000000E0,-1.000000000E-1,8.600726713E0
1.258863103E1,1.170000000E0,8.190000000E0,4.900000000E-1,8.287647435E0
1.259934012E1,7.400000000E-1,8.170000000E0,1.270000000E0,8.301168592E0
1.260888223E1,7.000000000E-1,7.840000000E0,1.420000000E0,7.998249809E0
1.261760825E1,2.000000000E-1,7.970000000E0,1.750000000E0,8.162315848E0
1.262823046E1,-2.300000000E-1,7.640000000E0,2.340000000E0,7.993628713E0
1.263964799E1,-5.400000000E-1,7.770000000E0,2.410000000E0,8.153073040E0
1.264819904E1,-9.400000000E-1,7.820000000E0,2.630000000E0,8.303788292E0
1.265902308E1,-1.460000000E0,7.500000000E0,2.510000000E0,8.042493394E0
1.266805151E1,-1.640000000E0,7.670000000E0,2.670000000E0,8.285372653E0
1.267793137E1,-2.080000000E0,7.450000000E0,2.400000000E0,8.098697426E0
1.268799928E1,-2.440000000E0,7.310000000E0,2.400000000E0,8.071536409E0
1.269834256E1,-3.220000000E0,7.380000000E0,1.980000000E0,8.291754941E0
1.270981117E1,-3.510000000E0,7.390000000E0,1.810000000E0,8.379039324E0
1.272037337E1,-4.070000000E0,7.170000000E0,1.230000000E0,8.335868281E0
1.273005053E1,-4.740000000E0,7.330000000E0,1.000000000E0,8.786153880E0
1.274069560E1,-5.200000000E0,6.910000000E0,3.700000000E-1,8.655922828E0
1.275059579E1,-5.640000000E0,6.920000000E0,1.200000000E-1,8.928068100E0
1.276033515E1,-6.240000000E0,6.850000000E0,-4.100000000E-1,9.275138813E0
1.276993211E1,-6.790000000E0,6.780000000E0,-5.300000000E-1,9.610067638E0
1.277991233E1,-7.020000000E0,6.660000000E0,-7.200000000E-1,9.703319020E0
1.278925588E1,-7.690000000E0,6.470000000E0,-1.110000000E0,1.011084072E1
1.279848218E1,-8.000000000E0,6.440000000E0,-1.020000000E0,1.032056200E1
1.280742758E1,-8.410000000E0,6.370000000E0,-8.600000000E-1,1.058511219E1
1.281724825E1,-8.660000000E0,6.410000000E0,-1.180000000E0,1.083863921E1
1.282662803E1,-9.140000000E0,6.210000000E0,-9.300000000E-1,1.108912079E1
1.283763886E1,-9.580000000E0,6.210000000E0,-5.700000000E-1,1.143089673E1
1.284868254E1,-9.740000000E0,6.000000000E0,-5.300000000E-1,1.145200856E1
1.285821417E1,-1.023000000E1,5.860000000E0,-4.900000000E-1,1.179968644E1
1.286857160E1,-1.035000000E1,5.680000000E0,4.000000000E-2,1.180620600E1
1.287977847E1,-1.074000000E1,5.580000000E0,3.000000000E-1,1.210677496E1
1.288935596E1,-1.070000000E1,5.720000000E0,7.700000000E-1,1.215735580E1
1.289952010E1,-1.081000000E1,5.450000000E0,8.600000000E-1,1.213664698E1
1.290935078E1,-1.083000000E1,5.300000000E0,1.070000000E0,1.210470157E1
1.291980157E1,-1.095000000E1,5.150000000E0,9.700000000E-1,1.213943574E1
1.293118089E1,-1.097000000E1,5.270000000E0,1.270000000E0,1.223628620E1
1.294009676E1,-1.073000000E1,5.120000000E0,1.190000000E0,1.194836390E1
1.295149291E1,-1.044000000E1,5.000000000E0,6.700000000E-1,1.159493424E1
1.296199011E1,-1.041000000E1,4.940000000E0,7.400000000E-1,1.154639771E1
1.297287773E1,-1.021000000E1,4.640000000E0,5.700000000E-1,1.122936329E1
1.298328309E1,-9.800000000E0,4.720000000E0,1.000000000E-1,1.087788582E1
1.299439404E1,-9.100000000E0,4.390000000E0,-1.500000000E-1,1.010468208E1
1.300387276E1,-9.010000000E0,4.520000000E0,-8.800000000E-1,1.011854239E1
1.301449690E1,-8.480000000E0,4.320000000E0,-1.130000000E0,9.583824915E0
1.302378924E1,-7.980000000E0,4.370000000E0,-1.510000000E0,9.222656884E0
1.303381521E1,-7.140000000E0,4.150000000E0,-1.980000000E0,8.492496688E0
1.304435968E1,-6.680000000E0,4.120000000E0,-2.040000000E0,8.109155320E0
1.305346306E1,-6.000000000E0,4.180000000E0,-2.420000000E0,7.702519068E0
1.306214654E1,-5.420000000E0,4.220000000E0,-2.450000000E0,7.292962361E0
1.307301938E1,-4.770000000E0,3.960000000E0,-2.470000000E0,6.673484847E0
1.308394622E1,-3.900000000E0,3.850000000E0,-2.470000000E0,6.011106387E0
1.309444321E1,-3.230000000E0,3.790000000E0,-2.660000000E0,5.645582344E0
1.310390751E1,-2.510000000E0,3.950000000E0,-2.480000000E0,5.296508284E0
1.311438203E1,-1.810000000E0,4.000000000E0,-1.780000000E0,4.737562664E0
1.312313367E1,-1.270000000E0,3.680000000E0,-1.540000000E0,4.186514063E0
1.313362120E1,-2.900000000E-1,3.770000000E0,-1.340000000E0,4.011558301E0
1.314384979E1,3.500000000E-1,3.700000000E0,-8.700000000E-1,3.816988342E0
1.315420141E1,1.100000000E0,3.970000000E0,-1.700000000E-1,4.123081372E0
1.316404236E1,2.010000000E0,3.680000000E0,1.700000000E-1,4.196593857E0
1.317321783E1,2.460000000E0,3.670000000E0,1.010000000E0,4.532173871E0
1.318389547E1,3.080000000E0,3.920000000E0,1.150000000E0,5.116180216E0
1.319378786E1,3.900000000E0,4.020000000E0,1.920000000E0,5.920878313E0
1.320452400E1,4.520000000E0,3.970000000E0,2.180000000E0,6.398726436E0
1.321411654E1,4.910000000E0,3.770000000E0,2.360000000E0,6.624998113E0
1.322287990E1,5.490000000E0,3.900000000E0,2.580000000E0,7.211553231E0
1.323300728E1,6.090000000E0,3.980000000E0,2.700000000E0,7.760057989E0
1.324337556E1,6.460000000E0,4.170000000E0,2.500000000E0,8.085202533E0
1.325464089E1,7.180000000E0,4.190000000E0,2.500000000E0,8.680927370E0
1.326580416E1,7.540000000E0,4.050000000E0,2.080000000E0,8.807979337E0
1.327447560E1,7.720000000E0,4.310000000E0,1.850000000E0,9.033105778E0
1.328529112E1,8.180000000E0,4.610000000E0,1.960000000E0,9.591981026E0
1.329457521E1,8.100000000E0,4.730000000E0,1.580000000E0,9.512060765E0
1.330516681E1,8.380000000E0,5.070000000E0,1.120000000E0,9.858179345E0
1.331480525E1,8.780000000E0,5.490000000E0,4.200000000E-1,1.036363353E1
1.332427149E1,8.750000000E0,5.860000000E0,3.100000000E-1,1.053556833E1
1.333423634E1,8.710000000E0,6.260000000E0,0.000000000E0,1.072621555E1
1.334432793E1,8.890000000E0,6.670000000E0,-4.600000000E-1,1.112351563E1
1.335491138E1,8.950000000E0,7.170000000E0,-7.700000000E-1,1.149366347E1
1.336532503E1,8.870000000E0,7.750000000E0,-7.900000000E-1,1.180523189E1
1.337585980E1,8.610000000E0,8.440000000E0,-1.270000000E0,1.212347310E1
1.338551203E1,8.510000000E0,9.270000000E0,-1.080000000E0,1.263009897E1
1.339604405E1,8.510000000E0,1.007000000E1,-1.160000000E0,1.323520306E1
1.340558021E1,8.240000000E0,1.079000000E1,-9.700000000E-1,1.361112045E1
1.341590281E1,8.090000000E0,1.156000000E1,-7.400000000E-1,1.412902332E1
1.342578141E1,8.100000000E0,1.206000000E1,-6.000000000E-1,1.454006878E1
1.343596981E1,7.820000000E0,1.279000000E1,-1.200000000E-1,1.499169437E1
1.344452242E1,7.510000000E0,1.332000000E1,1.100000000E-1,1.529165132E1
1.345451878E1,7.560000000E0,1.407000000E1,3.200000000E-1,1.597563457E1
1.346367869E1,7.170000000E0,1.475000000E1,5.700000000E-1,1.641024985E1
1.347333612E1,7.120000000E0,1.520000000E1,6.500000000E-1,1.679752660E1
1.348205744E1,6.820000000E0,1.549000000E1,7.100000000E-1,1.693979339E1
1.349252814E1,6.570000000E0,1.581000000E1,1.130000000E0,1.715802728E1
1.350370870E1,6.230000000E0,1.639000000E1,8.700000000E-1,1.755567999E1
1.351327250E1,6.080000000E0,1.661000000E1,1.110000000E0,1.772260139E1
1.352208770E1,5.720000000E0,1.669000000E1,1.070000000E0,1.767538967E1
1.353244850E1,5.490000000E0,1.657000000E1,6.700000000E-1,1.746865479E1
1.354132961E1,5.500000000E0,1.657000000E1,5.300000000E-1,1.746699173E1
1.355250448E1,5.020000000E0,1.650000000E1,4.700000000E-1,1.725315333E1
1.356137185E1,4.890000000E0,1.643000000E1,2.700000000E-1,1.714438392E1
1.357095746E1,4.820000000E0,1.593000000E1,-3.000000000E-1,1.664593944E1
1.358094144E1,4.470000000E0,1.565000000E1,-6.200000000E-1,1.628765790E1
1.358979506E1,4.310000000E0,1.516000000E1,-8.800000000E-1,1.578531279E1
1.359925130E1,4.320000000E0,1.471000000E1,-1.310000000E0,1.538709199E1
1.360857714E1,3.900000000E0,1.433000000E1,-1.700000000E0,1.494820725E1
1.361921704E1,3.720000000E0,1.396000000E1,-1.960000000E0,1.457949245E1
1.363067586E1,3.740000000E0,1.328000000E1,-2.220000000E0,1.397406169E1
1.364026437E1,3.360000000E0,1.267000000E1,-2.350000000E0,1.331694409E1
1.365113653E1,3.180000000E0,1.203000000E1,-2.570000000E0,1.270583331E1
1.366005755E1,3.220000000E0,1.148000000E1,-2.530000000E0,1.218850688E1
1.367029729E1,2.830000000E0,1.111000000E1,-2.680000000E0,1.177384389E1
1.368009543E1,2.880000000E0,1.051000000E1,-2.530000000E0,1.118728743E1
1.368945998E1,2.640000000E0,9.920000000E0,-1.960000000E0,1.045072246E1
1.370042511E1,2.420000000E0,9.640000000E0,-1.880000000E0,1.011535467E1
1.371116438E1,1.970000000E0,9.360000000E0,-1.340000000E0,9.658472964E0
1.372006637E1,1.760000000E0,8.740000000E0,-7.000000000E-1,8.942885440E0
1.372944359E1,1.720000000E0,8.790000000E0,-6.100000000E-1,8.977449526E0
1.374040211E1,1.460000000E0,8.210000000E0,2.100000000E-1,8.341450713E0
1.375187940E1,9.400000000E-1,8.060000000E0,5.700000000E-1,8.134623532E0
1.376221410E1,6.200000000E-1,8.150000000E0,1.240000000E0,8.267073243E0
1.377332919E1,2.800000000E-1,8.030000000E0,1.810000000E0,8.236224863E0
1.378478186E1,-1.400000000E-1,7.670000000E0,2.220000000E0,7.986044077E0
1.379550349E1,-4.300000000E-1,7.800000000E0,2.480000000E0,8.196053929E0
1.380593769E1,-8.000000000E-1,7.720000000E0,2.540000000E0,8.166394553E0
1.381510141E1,-1.120000000E0,7.600000000E0,2.630000000E0,8.119809111E0
1.382471268E1,-1.720000000E0,7.690000000E0,2.440000000E0,8.249127227E0
1.383508334E1,-2.120000000E0,7.590000000E0,2.320000000E0,8.214919354E0
1.384636255E1,-2.660000000E0,7.380000000E0,2.430000000E0,8.212484399E0
1.385576809E1,-3.040000000E0,7.420000000E0,1.840000000E0,8.227004315E0
1.386545372E1,-3.530000000E0,7.430000000E0,1.980000000E0,8.460862840E0
1.387402043E1,-3.680000000E0,7.340000000E0,1.300000000E0,8.313122157E0
1.388461061E1,-4.410000000E0,7.230000000E0,1.160000000E0,8.547900327E0
1.389444132E1,-4.980000000E0,7.220000000E0,6.400000000E-1,8.794225378E0
1.390533452E1,-5.340000000E0,6.920000000E0,3.000000000E-1,8.745970501E0
1.391453548E1,-5.690000000E0,6.810000000E0,4.000000000E-2,8.874333778E0
1.392501442E1,-6.280000000E0,6.710000000E0,-5.200000000E-1,9.205047528E0
1.393553370E1,-6.840000000E0,6.820000000E0,-5.300000000E-1,9.673618764E0
1.394542667E1,-7.410000000E0,6.660000000E0,-7.600000000E-1,9.992061849E0
1.395449249E1,-7.820000000E0,6.710000000E0,-9.700000000E-1,1.034975362E1
1.396420118E1,-8.280000000E0,6.660000000E0,-1.030000000E0,1.067590277E1
1.397493631E1,-8.560000000E0,6.250000000E0,-1.110000000E0,1.065683818E1
1.398400387E1,-8.920000000E0,6.250000000E0,-7.400000000E-1,1.091679898E1
1.399277399E1,-9.360000000E0,6.170000000E0,-9.000000000E-1,1.124671063E1
1.400266234E1,-9.570000000E0,6.110000000E0,-7.900000000E-1,1.138161236E1
1.401186590E1,-9.920000000E0,6.140000000E0,-4.100000000E-1,1.167364981E1
1.402276756E1,-1.021000000E1,5.910000000E0,5.000000000E-2,1.179723273E1
1.403371929E1,-1.060000000E1,5.690000000E0,3.500000000E-1,1.203572183E1
1.404505514E1,-1.081000000E1,5.690000000E0,4.700000000E-1,1.222510123E1
1.405607442E1,-1.095000000E1,5.460000000E0,6.300000000E-1,1.225197943E1
1.406651675E1,-1.078000000E1,5.420000000E0,1.000000000E0,1.210722099E1
1.407557791E1,-1.084000000E1,5.170000000E0,1.020000000E0,1.205300377E1
1.408654693E1,-1.078000000E1,5.220000000E0,1.230000000E0,1.204033637E1
1.409723121E1,-1.071000000E1,5.080000000E0,1.220000000E0,1.191632913E1
1.410797181E1,-1.056000000E1,5.030000000E0,1.050000000E0,1.174380688E1
1.411856411E1,-1.048000000E1,4.900000000E0,1.010000000E0,1.161294536E1
1.412955418E1,-1.009000000E1,4.800000000E0,5.800000000E-1,1.118858794E1
1.413894771E1,-1.001000000E1,4.770000000E0,4.600000000E-1,1.109795477E1
1.414946507E1,-9.460000000E0,4.470000000E0,-7.000000000E-2,1.046314484E1
1.415951696E1,-9.260000000E0,4.600000000E0,-6.700000000E-1,1.036129818E1
1.416903049E1,-8.510000000E0,4.480000000E0,-8.400000000E-1,9.653812718E0
1.417851101E1,-8.070000000E0,4.430000000E0,-1.140000000E0,9.276281583E0
1.418747742E1,-7.840000000E0,4.260000000E0,-1.640000000E0,9.072089065E0
1.419745202E1,-7.060000000E0,4.080000000E0,-2.100000000E0,8.420213774E0
1.420705817E1,-6.460000000E0,4.320000000E0,-2.280000000E0,8.098913507E0
1.421682272E1,-6.120000000E0,4.220000000E0,-2.280000000E0,7.775680035E0
1.422787773E1,-5.200000000E0,4.220000000E0,-2.720000000E0,7.228194795E0
1.423842226E1,-4.520000000E0,3.980000000E0,-2.860000000E0,6.667113318E0
1.424896301E1,-3.710000000E0,4.090000000E0,-2.370000000E0,6.009084789E0
1.426041515E1,-2.780000000E0,4.040000000E0,-2.140000000E0,5.350663510E0
1.426956862E1,-2.160000000E0,3.900000000E0,-1.970000000E0,4.874064013E0
1.427959231E1,-1.600000000E0,4.000000000E0,-1.670000000E0,4.620486987E0
1.428836987E1,-8.300000000E-1,3.950000000E0,-1.370000000E0,4.262428885E0
1.429804824E1,-1.100000000E-1,3.680000000E0,-1.030000000E0,3.823009286E0
1.430939929E1,5.200000000E-1,3.680000000E0,-4.300000000E-1,3.741350024E0
1.431815705E1,1.190000000E0,3.780000000E0,6.000000000E-2,3.963344547E0
1.432893022E1,2.030000000E0,3.820000000E0,3.900000000E-1,4.343431823E0
1.434002653E1,2.720000000E0,3.880000000E0,8.700000000E-1,4.817644653E0
1.435005336E1,3.400000000E0,3.860000000E0,1.560000000E0,5.375239530E0
1.436094620E1,4.230000000E0,3.990000000E0,1.940000000E0,6.129975530E0
1.437076933E1,4.910000000E0,3.990000000E0,2.440000000E0,6.780988129E0
1.438032940E1,5.270000000E0,3.780000000E0,2.370000000E0,6.904940260E0
1.439034659E1,5.860000000E0,3.900000000E0,2.520000000E0,7.476630257E0
1.439943082E1,6.350000000E0,4.130000000E0,2.430000000E0,7.955142991E0
1.440885328E1,6.740000000E0,4.130000000E0,2.350000000E0,8.246635678E0
1.441826941E1,7.130000000E0,3.940000000E0,2.300000000E0,8.464661836E0
1.442973463E1,7.320000000E0,4.270000000E0,2.300000000E0,8.780962362E0
1.443924012E1,7.930000000E0,4.230000000E0,2.230000000E0,9.260167385E0
1.444842673E1,7.940000000E0,4.530000000E0,1.510000000E0,9.265236101E0
1.445974603E1,8.210000000E0,4.960000000E0,1.120000000E0,9.657126902E0
1.446866178E1,8.500000000E0,4.900000000E0,1.040000000E0,9.866184673E0
1.448005918E1,8.700000000E0,5.550000000E0,4.000000000E-1,1.032726973E1
1.449111911E1,8.880000000E0,5.880000000E0,-1.400000000E-1,1.065121589E1
1.450156029E1,8.780000000E0,6.550000000E0,-8.000000000E-2,1.095432791E1
1.451134371E1,9.030000000E0,7.020000000E0,-7.300000000E-1,1.146098600E1
1.452043543E1,8.910000000E0,7.270000000E0,-8.100000000E-1,1.152810045E1
1.452925404E1,8.950000000E0,8.020000000E0,-8.000000000E-1,1.204420608E1
1.453806507E1,8.760000000E0,8.670000000E0,-8.900000000E-1,1.235712750E1
1.454761250E1,8.530000000E0,9.130000000E0,-8.400000000E-1,1.252291500E1
1.455733394E1,8.390000000E0,9.960000000E0,-1.000000000E0,1.306115232E1
1.456860507E1,8.450000000E0,1.062000000E1,-1.110000000E0,1.361686454E1
1.457871375E1,8.200000000E0,1.134000000E1,-9.700000000E-1,1.402770473E1
1.459018565E1,7.990000000E0,1.221000000E1,-4.400000000E-1,1.459855472E1
1.460084831E1,7.730000000E0,1.294000000E1,-2.300000000E-1,1.507479353E1
1.460978719E1,7.480000000E0,1.377000000E1,-1.300000000E-1,1.567099869E1
1.461994790E1,7.350000000E0,1.415000000E1,1.000000000E-1,1.594537551E1
1.462892601E1,7.070000000E0,1.472000000E1,4.200000000E-1,1.633522880E1
1.463754361E1,7.080000000E0,1.519000000E1,5.800000000E-1,1.676898625E1
1.464887498E1,6.560000000E0,1.576000000E1,8.200000000E-1,1.709045348E1
1.465838854E1,6.600000000E0,1.621000000E1,9.300000000E-1,1.752680804E1
1.466745730E1,6.350000000E0,1.634000000E1,1.190000000E0,1.757083379E1
1.467626267E1,5.970000000E0,1.661000000E1,1.040000000E0,1.768091061E1
1.468671909E1,5.860000000E0,1.648000000E1,1.160000000E0,1.752927837E1
1.469660254E1,5.560000000E0,1.670000000E1,8.300000000E-1,1.762079737E1
1.470513757E1,5.330000000E0,1.648000000E1,5.400000000E-1,1.732890360E1
1.471578311E1,5.210000000E0,1.659000000E1,5.700000000E-1,1.739819243E1
1.472505315E1,5.020000000E0,1.629000000E1,1.300000000E-1,1.704644831E1
1.473589482E1,4.580000000E0,1.581000000E1,-1.700000000E-1,1.646090520E1
1.474586064E1,4.630000000E0,1.570000000E1,-8.600000000E-1,1.639104939E1
1.475596738E1,4.120000000E0,1.516000000E1,-8.900000000E-1,1.573505958E1
1.476583898E1,3.930000000E0,1.468000000E1,-1.430000000E0,1.526408202E1
1.477636692E1,3.900000000E0,1.399000000E1,-1.930000000E0,1.465110917E1
1.478783706E1,3.630000000E0,1.366000000E1,-2.320000000E0,1.432322938E1
1.479873068E1,3.480000000E0,1.291000000E1,-2.640000000E0,1.362894347E1
1.480743798E1,3.340000000E0,1.253000000E1,-2.790000000E0,1.326426025E1
1.481742239E1,3.160000000E0,1.169000000E1,-2.770000000E0,1.242234277E1
1.482662525E1,3.150000000E0,1.140000000E1,-2.680000000E0,1.212703179E1
1.483543245E1,2.990000000E0,1.083000000E1,-2.470000000E0,1.150347339E1
1.484451798E1,2.620000000E0,1.043000000E1,-2.360000000E0,1.100994550E1
1.485376232E1,2.410000000E0,1.003000000E1,-2.280000000E0,1.056444035E1
1.486514150E1,2.300000000E0,9.620000000E0,-1.830000000E0,1.005899100E1
1.487587610E1,1.910000000E0,9.250000000E0,-1.440000000E0,9.554276529E0
1.488693500E1,1.720000000E0,8.630000000E0,-9.100000000E-1,8.846660387E0
1.489753147E1,1.560000000E0,8.590000000E0,-2.500000000E-1,8.734082665E0
1.490697843E1,1.060000000E0,8.130000000E0,4.000000000E-1,8.208562603E0
1.491665175E1,1.060000000E0,7.920000000E0,6.400000000E-1,8.016208580E0
1.492647379E1,7.500000000E-1,7.890000000E0,1.460000000E0,8.058920523E0
1.493585402E1,3.300000000E-1,7.790000000E0,1.900000000E0,8.025147974E0
1.494561834E1,-5.000000000E-2,7.880000000E0,2.070000000E0,8.147502685E0
1.495643191E1,-3.400000000E-1,7.750000000E0,2.090000000E0,8.034064974E0
1.496515902E1,-7.500000000E-1,7.650000000E0,2.320000000E0,8.029159358E0
1.497448874E1,-9.300000000E-1,7.750000000E0,2.590000000E0,8.224080496E0
1.498442582E1,-1.420000000E0,7.760000000E0,2.830000000E0,8.381103746E0
1.499495449E1,-1.980000000E0,7.600000000E0,2.780000000E0,8.331194392E0
1.500539228E1,-2.270000000E0,7.550000000E0,2.490000000E0,8.267738506E0
1.501606723E1,-2.830000000E0,7.560000000E0,2.310000000E0,8.396344443E0
1.502488302E1,-3.420000000E0,7.300000000E0,1.650000000E0,8.228541791E0
1.503392528E1,-3.760000000E0,7.480000000E0,1.540000000E0,8.512320483E0
1.504335222E1,-4.200000000E0,7.130000000E0,1.170000000E0,8.357379972E0
1.505269728E1,-4.500000000E0,7.010000000E0,6.800000000E-1,8.357780806E0
1.506346406E1,-5.260000000E0,7.190000000E0,4.300000000E-1,8.919002186E0
1.507494401E1,-5.790000000E0,6.870000000E0,1.000000000E-2,8.984492195E0
1.508549335E1,-6.130000000E0,6.830000000E0,-1.400000000E-1,9.178529294E0
1.509409249E1,-6.750000000E0,6.810000000E0,-8.300000000E-1,9.624318158E0
1.510348528E1,-7.060000000E0,6.580000000E0,-9.200000000E-1,9.694658323E0
1.511439436E1,-7.830000000E0,6.580000000E0,-1.150000000E0,1.029212320E1
1.512566738E1,-8.230000000E0,6.450000000E0,-1.200000000E0,1.052498931E1
1.513595211E1,-8.740000000E0,6.250000000E0,-1.140000000E0,1.080507751E1
1.514549858E1,-8.880000000E0,6.330000000E0,-1.040000000E0,1.095467480E1
1.515506394E1,-9.350000000E0,6.170000000E0,-6.100000000E-1,1.121889032E1
1.516546425E1,-9.820000000E0,5.960000000E0,-7.200000000E-1,1.150966550E1
1.517655683E1,-1.020000000E1,6.060000000E0,-3.800000000E-1,1.187046756E1
1.518607932E1,-1.034000000E1,5.830000000E0,-2.900000000E-1,1.187386205E1
1.519515142E1,-1.065000000E1,5.590000000E0,-1.000000000E-2,1.202791337E1
1.520365979E1,-1.063000000E1,5.820000000E0,2.100000000E-1,1.212078380E1
1.521257220E1,-1.058000000E1,5.590000000E0,6.000000000E-1,1.198100580E1
1.522362576E1,-1.071000000E1,5.410000000E0,6.800000000E-1,1.201809469E1
1.523399952E1,-1.069000000E1,5.420000000E0,8.100000000E-1,1.201285145E1
1.524547143E1,-1.048000000E1,5.350000000E0,1.020000000E0,1.181072817E1
1.525417981E1,-1.040000000E1,5.230000000E0,7.700000000E-1,1.166643905E1
1.526377786E1,-9.950000000E0,5.280000000E0,1.130000000E0,1.132068019E1
1.527466499E1,-9.930000000E0,5.180000000E0,5.800000000E-1,1.121488743E1
1.528514861E1,-9.370000000E0,5.150000000E0,5.500000000E-1,1.070616178E1
1.529384862E1,-9.210000000E0,5.280000000E0,6.300000000E-1,1.063482017E1
1.530355294E1,-8.690000000E0,5.070000000E0,-7.000000000E-2,1.006110829E1
1.531396584E1,-8.230000000E0,5.000000000E0,-4.600000000E-1,9.640772791E0
1.532452910E1,-7.960000000E0,5.030000000E0,-6.000000000E-1,9.435173554E0
1.533438418E1,-7.250000000E0,5.060000000E0,-8.500000000E-1,8.881925467E0
1.534344868E1,-6.710000000E0,5.000000000E0,-1.270000000E0,8.463864366E0
1.535484646E1,-6.210000000E0,5.150000000E0,-1.670000000E0,8.238658871E0
1.536474596E1,-5.620000000E0,5.250000000E0,-1.670000000E0,7.869930114E0
1.537539799E1,-5.110000000E0,5.240000000E0,-1.910000000E0,7.564244840E0
1.538550248E1,-4.560000000E0,5.120000000E0,-2.140000000E0,7.182450835E0
1.539424456E1,-3.830000000E0,5.250000000E0,-2.040000000E0,6.811240709E0
1.540345463E1,-3.240000000E0,5.270000000E0,-1.910000000E0,6.474457506E0
1.541214371E1,-2.930000000E0,5.240000000E0,-1.990000000E0,6.324760865E0
1.542121604E1,-2.420000000E0,5.320000000E0,-1.910000000E0,6.148731577E0
1.543031660E1,-1.790000000E0,5.210000000E0,-1.600000000E0,5.736566918E0
1.544006119E1,-1.120000000E0,5.370000000E0,-1.400000000E0,5.661386756E0
1.544952628E1,-6.700000000E-1,5.340000000E0,-1.300000000E0,5.536650612E0
1.545911394E1,8.000000000E-2,5.460000000E0,-5.700000000E-1,5.490255003E0
1.547006460E1,6.000000000E-1,5.520000000E0,-5.600000000E-1,5.580680962E0
1.547862868E1,1.090000000E0,5.330000000E0,7.000000000E-2,5.440762814E0
1.548743887E1,1.410000000E0,5.650000000E0,2.300000000E-1,5.827821205E0
1.549836227E1,1.970000000E0,5.440000000E0,7.800000000E-1,5.838056183E0
1.550846417E1,2.470000000E0,5.650000000E0,9.600000000E-1,6.240592921E0
1.551828084E1,2.550000000E0,5.780000000E0,1.370000000E0,6.464348382E0
1.552758279E1,3.080000000E0,5.930000000E0,1.390000000E0,6.825203294E0
1.553770975E1,3.280000000E0,5.750000000E0,1.430000000E0,6.772429402E0
1.554687444E1,3.770000000E0,6.040000000E0,1.780000000E0,7.339134826E0
1.555794952E1,3.870000000E0,6.020000000E0,1.840000000E0,7.389377511E0
1.556892164E1,4.300000000E0,6.010000000E0,1.640000000E0,7.569656531E0
1.557838719E1,4.330000000E0,6.210000000E0,1.760000000E0,7.772425619E0
1.558696069E1,4.580000000E0,6.420000000E0,1.530000000E0,8.033286998E0
1.559812370E1,4.730000000E0,6.370000000E0,1.440000000E0,8.063708824E0
1.560751971E1,4.900000000E0,6.790000000E0,8.800000000E-1,8.419530866E0
1.561799034E1,4.950000000E0,6.700000000E0,1.010000000E0,8.391221604E0
1.562906481E1,4.830000000E0,7.010000000E0,6.600000000E-1,8.538419057E0
1.563995989E1,4.920000000E0,7.300000000E0,5.000000000E-1,8.817391905E0
1.565104739E1,4.710000000E0,7.510000000E0,-3.000000000E-2,8.864823743E0
1.566101480E1,4.630000000E0,8.100000000E0,-1.100000000E-1,9.330541249E0
1.567204168E1,4.760000000E0,8.460000000E0,-1.100000000E-1,9.707795836E0
1.568192514E1,4.730000000E0,8.770000000E0,-3.300000000E-1,9.969689062E0
1.569121660E1,4.570000000E0,8.840000000E0,-5.900000000E-1,9.968881582E0
1.570115950E1,4.370000000E0,9.420000000E0,-6.300000000E-1,1.040337445E1
1.571066568E1,4.270000000E0,9.580000000E0,-3.000000000E-1,1.049282136E1
1.572146712E1,4.150000000E0,9.940000000E0,-4.000000000E-1,1.077896563E1
1.573246225E1,3.920000000E0,1.045000000E1,-6.300000000E-1,1.117881031E1
1.574138575E1,3.700000000E0,1.053000000E1,-4.400000000E-1,1.116980304E1
1.575037903E1,3.720000000E0,1.077000000E1,-1.900000000E-1,1.139593787E1
1.576003001E1,3.380000000E0,1.137000000E1,-2.600000000E-1,1.186460703E1
1.576991987E1,3.400000000E0,1.142000000E1,-1.000000000E-2,1.191538921E1
1.578128884E1,3.170000000E0,1.182000000E1,2.200000000E-1,1.223967728E1
1.579261391E1,2.970000000E0,1.190000000E1,4.000000000E-2,1.226509274E1
1.580401503E1,2.800000000E0,1.194000000E1,2.100000000E-1,1.226571237E1
1.581470430E1,2.680000000E0,1.217000000E1,5.700000000E-1,1.247462224E1
1.582523598E1,2.510000000E0,1.212000000E1,1.700000000E-1,1.237834399E1
1.583454716E1,2.200000000E0,1.210000000E1,1.900000000E-1,1.229984146E1
1.584416512E1,2.020000000E0,1.206000000E1,5.100000000E-1,1.223863146E1
1.585267317E1,2.020000000E0,1.215000000E1,3.900000000E-1,1.232294608E1
1.586367204E1,1.960000000E0,1.201000000E1,2.000000000E-1,1.217052587E1
1.587300029E1,1.720000000E0,1.193000000E1,3.100000000E-1,1.205733801E1
1.588173813E1,1.410000000E0,1.204000000E1,-1.100000000E-1,1.212278021E1
1.589118491E1,1.300000000E0,1.185000000E1,-3.200000000E-1,1.192538888E1
1.590065442E1,1.350000000E0,1.165000000E1,-2.000000000E-2,1.172797510E1
1.591132637E1,1.350000000E0,1.130000000E1,-2.200000000E-1,1.138248215E1
1.591984349E1,1.310000000E0,1.132000000E1,-4.600000000E-1,1.140482793E1
1.592903353E1,1.040000000E0,1.113000000E1,-4.200000000E-1,1.118637117E1
1.594022294E1,9.900000000E-1,1.086000000E1,-7.400000000E-1,1.093010979E1
1.595128757E1,9.000000000E-1,1.056000000E1,-6.700000000E-1,1.061943972E1
1.596167466E1,6.700000000E-1,1.038000000E1,-5.600000000E-1,1.041666453E1
1.597185151E1,5.600000000E-1,1.029000000E1,-4.200000000E-1,1.031378204E1
1.598101937E1,6.800000000E-1,1.011000000E1,-6.600000000E-1,1.015431435E1
1.599214466E1,6.000000000E-1,1.018000000E1,-7.400000000E-1,1.022448043E1
1.600292682E1,6.500000000E-1,9.910000000E0,-6.600000000E-1,9.953200490E0
1.601296562E1,3.500000000E-1,9.890000000E0,-4.700000000E-1,9.907345760E0
1.602194868E1,5.300000000E-1,9.900000000E0,-2.400000000E-1,9.917081224E0
1.603109619E1,2.700000000E-1,9.750000000E0,-1.200000000E-1,9.754475896E0
1.604073408E1,3.100000000E-1,9.540000000E0,-4.000000000E-2,9.545119172E0
1.605022745E1,3.100000000E-1,9.560000000E0,1.300000000E-1,9.565908216E0
1.605891062E1,7.000000000E-2,9.750000000E0,1.000000000E-1,9.750764073E0
1.606862975E1,3.000000000E-1,9.440000000E0,1.600000000E-1,9.446120897E0
1.607847590E1,2.600000000E-1,9.500000000E0,1.700000000E-1,9.505077590E0
1.608783714E1,2.200000000E-1,9.640000000E0,2.500000000E-1,9.645750360E0
1.609749005E1,-1.500000000E-1,9.730000000E0,3.000000000E-1,9.735779373E0
1.610698718E1,4.000000000E-2,9.730000000E0,4.400000000E-1,9.740025667E0
1.611661769E1,2.000000000E-2,9.720000000E0,4.000000000E-2,9.720102880E0
1.612697478E1,7.000000000E-2,9.720000000E0,2.600000000E-1,9.723728709E0
1.613696677E1,-1.900000000E-1,9.630000000E0,-2.000000000E-2,9.631894933E0
1.614605954E1,-2.200000000E-1,9.540000000E0,-1.000000000E-2,9.542541590E0
1.615694532E1,2.000000000E-2,9.760000000E0,3.200000000E-1,9.765264973E0
1.616698488E1,-1.700000000E-1,9.580000000E0,3.000000000E-2,9.581555197E0
1.617685997E1,-2.200000000E-1,9.860000000E0,8.000000000E-2,9.862778513E0
1.618750000E1,-1.900000000E-1,9.650000000E0,-1.200000000E-1,9.652616226E0
1.619825641E1,4.000000000E-2,9.640000000E0,1.000000000E-2,9.640088174E0
1.620930359E1,1.000000000E-2,9.980000000E0,-2.400000000E-1,9.982890363E0
1.622023733E1,9.000000000E-2,9.690000000E0,4.000000000E-2,9.690500503E0
1.623074438E1,1.100000000E-1,9.840000000E0,2.300000000E-1,9.843302291E0
1.624140777E1,-1.700000000E-1,9.660000000E0,9.000000000E-2,9.661914924E0
1.625037915E1,1.500000000E-1,9.980000000E0,8.000000000E-2,9.981447791E0
1.626097691E1,1.300000000E-1,9.640000000E0,3.000000000E-2,9.640923192E0
1.627024028E1,1.500000000E-1,9.880000000E0,-9.000000000E-2,9.881548462E0
1.627951379E1,9.000000000E-2,9.930000000E0,1.400000000E-1,9.931394665E0
1.628837418E1,-4.000000000E-2,9.740000000E0,-6.000000000E-2,9.740266937E0
1.629806491E1,-9.000000000E-2,9.640000000E0,-8.000000000E-2,9.640752045E0
1.630662454E1,1.400000000E-1,9.650000000E0,2.000000000E-2,9.651036214E0
1.631709548E1,-3.000000000E-2,9.660000000E0,2.400000000E-1,9.663027476E0
1.632783979E1,-0.000000000E0,9.900000000E0,1.200000000E-1,9.900727246E0
1.633866644E1,7.000000000E-2,9.820000000E0,9.000000000E-2,9.820661892E0
1.634755302E1,7.000000000E-2,9.950000000E0,-1.900000000E-1,9.952060088E0
1.635797628E1,7.000000000E-2,9.860000000E0,1.500000000E-1,9.861389354E0
1.636899116E1,4.000000000E-2,9.840000000E0,-4.000000000E-2,9.840162600E0
1.637759907E1,0.000000000E0,9.710000000E0,6.000000000E-2,9.710185374E0
1.638667918E1,9.000000000E-2,9.710000000E0,3.000000000E-2,9.710463429E0
1.639598251E1,-4.000000000E-2,9.980000000E0,1.400000000E-1,9.981062068E0
1.640586846E1,-8.000000000E-2,9.970000000E0,-2.300000000E-1,9.972973478E0
1.641488496E1,1.400000000E-1,9.790000000E0,-2.000000000E-1,9.793043449E0
1.642500157E1,1.200000000E-1,9.910000000E0,-1.100000000E-1,9.911336943E0
1.643453343E1,8.000000000E-2,9.890000000E0,-1.500000000E-1,9.891460964E0
1.644499876E1,-1.200000000E-1,9.730000000E0,9.000000000E-2,9.731156149E0
1.645509273E1,-1.600000000E-1,9.700000000E0,-1.900000000E-1,9.703179891E0
1.646565163E1,1.500000000E-1,9.900000000E0,-2.000000000E-1,9.903156063E0
1.647489065E1,1.600000000E-1,9.970000000E0,1.000000000E-2,9.971288783E0
1.648551185E1,-8.000000000E-2,9.980000000E0,-2.200000000E-1,9.982745113E0
1.649621576E1,5.000000000E-2,9.760000000E0,1.500000000E-1,9.761280654E0
1.650688167E1,-1.700000000E-1,9.660000000E0,-9.000000000E-2,9.661914924E0
1.651558702E1,-4.000000000E-2,9.750000000E0,-1.000000000E-1,9.750594854E0
1.652692547E1,7.000000000E-2,9.660000000E0,5.000000000E-2,9.660383015E0
1.653715606E1,-5.000000000E-2,9.980000000E0,2.400000000E-1,9.983010568E0
1.654647302E1,1.100000000E-1,9.740000000E0,-1.100000000E-1,9.741242221E0
1.655627543E1,1.400000000E-1,9.930000000E0,-1.400000000E-1,9.931973621E0
1.656632823E1,-1.300000000E-1,9.720000000E0,-7.000000000E-2,9.721121334E0
1.657638154E1,7.000000000E-2,9.970000000E0,1.400000000E-1,9.971228610E0
1.658562542E1,-4.000000000E-2,9.810000000E0,2.200000000E-1,9.812548089E0
1.659492031E1,-1.100000000E-1,9.930000000E0,-1.700000000E-1,9.932064237E0
1.660451107E1,-5.000000000E-2,9.840000000E0,-2.400000000E-1,9.843053388E0
1.661535385E1,-1.000000000E-2,9.900000000E0,-1.000000000E-1,9.900510088E0
1.662516618E1,1.400000000E-1,9.660000000E0,-9.000000000E-2,9.661433641E0
1.663378207E1,9.000000000E-2,9.670000000E0,1.200000000E-1,9.671163322E0
1.664363870E1,-1.700000000E-1,9.760000000E0,9.000000000E-2,9.761895308E0
1.665274279E1,-1.600000000E-1,9.940000000E0,1.200000000E-1,9.942011869E0
1.666128003E1,1.700000000E-1,9.950000000E0,-5.000000000E-2,9.951577764E0
1.667271112E1,2.000000000E-2,9.880000000E0,-4.000000000E-2,9.880101214E0
1.668209228E1,4.000000000E-2,9.840000000E0,2.200000000E-1,9.842540322E0
