"Time (s)"	"Linear Acceleration x (m/s^2)"	"Linear Acceleration y (m/s^2)"	"Linear Acceleration z (m/s^2)"	"Absolute acceleration (m/s^2)"
1,037528640E-2	3,000000000E-2	-4,000000000E-2	1,000000000E-2	5,099019514E-2
2,156692780E-2	2,000000000E-2	-7,000000000E-2	1,600000000E-1	1,757839583E-1
3,239398487E-2	7,000000000E-2	9,000000000E-2	1,300000000E-1	1,729161647E-1
4,156960644E-2	-7,000000000E-2	1,200000000E-1	9,000000000E-2	1,655294536E-1
5,097010530E-2	-4,000000000E-2	1,300000000E-1	-2,400000000E-1	2,758622845E-1
6,209076563E-2	-9,000000000E-2	-1,200000000E-1	-3,000000000E-2	1,529705854E-1
7,060656155E-2	-7,000000000E-2	-1,100000000E-1	-1,300000000E-1	1,841195264E-1
8,157024680E-2	-1,100000000E-1	-1,000000000E-2	1,000000000E-2	1,109053651E-1
9,246145509E-2	1,400000000E-1	1,600000000E-1	-1,700000000E-1	2,722131518E-1
1,023652599E-1	1,400000000E-1	4,000000000E-2	-1,800000000E-1	2,315167381E-1
1,117743572E-1	-5,000000000E-2	4,000000000E-2	2,300000000E-1	2,387467277E-1
1,211096341E-1	7,000000000E-2	-6,000000000E-2	1,900000000E-1	2,111871208E-1
1,303742428E-1	-0,000000000E0	1,700000000E-1	-2,000000000E-1	2,624880950E-1
1,402094717E-1	-8,000000000E-2	-1,100000000E-1	1,600000000E-1	2,100000000E-1
1,502231165E-1	-5,000000000E-2	2,000000000E-2	-2,200000000E-1	2,264950331E-1
1,603836086E-1	1,600000000E-1	6,000000000E-2	-8,000000000E-2	1,886796226E-1
1,718701094E-1	-6,000000000E-2	1,100000000E-1	2,500000000E-1	2,796426291E-1
1,827480952E-1	3,000000000E-2	1,100000000E-1	2,200000000E-1	2,477902339E-1
1,931146329E-1	1,600000000E-1	-4,000000000E-2	-2,000000000E-2	1,661324773E-1
2,045815133E-1	-7,000000000E-2	-8,000000000E-2	1,000000000E-1	1,459451952E-1
2,137274394E-1	1,100000000E-1	1,700000000E-1	-6,000000000E-2	2,111871208E-1
2,227080755E-1	-1,400000000E-1	2,000000000E-2	1,700000000E-1	2,211334439E-1
2,330456943E-1	8,000000000E-2	-8,000000000E-2	-9,000000000E-2	1,445683229E-1
2,416775204E-1	1,100000000E-1	-1,300000000E-1	-1,500000000E-1	2,269361144E-1
2,502845612E-1	1,200000000E-1	1,100000000E-1	-1,800000000E-1	2,426932220E-1
2,603292276E-1	1,700000000E-1	1,200000000E-1	7,000000000E-2	2,195449840E-1
2,702278457E-1	7,000000000E-2	2,000000000E-2	3,000000000E-2	7,874007874E-2
2,814793490E-1	1,700000000E-1	-4,000000000E-2	2,000000000E-1	2,655183609E-1
2,918670278E-1	-8,000000000E-2	6,000000000E-2	-1,800000000E-1	2,059126028E-1
3,019093807E-1	1,000000000E-2	1,700000000E-1	1,500000000E-1	2,269361144E-1
3,119000011E-1	-1,000000000E-1	3,000000000E-2	2,200000000E-1	2,435159132E-1
3,211425458E-1	-1,500000000E-1	1,000000000E-1	1,200000000E-1	2,165640783E-1
3,296779279E-1	-2,000000000E-2	1,300000000E-1	-1,900000000E-1	2,310844002E-1
3,387551343E-1	8,000000000E-2	9,000000000E-2	-1,700000000E-1	2,083266666E-1
3,493312307E-1	1,000000000E-1	-0,000000000E0	-2,100000000E-1	2,325940670E-1
3,584330509E-1	-1,700000000E-1	-1,100000000E-1	-8,000000000E-2	2,177154106E-1
3,680416598E-1	1,500000000E-1	7,000000000E-2	1,300000000E-1	2,104756518E-1
3,765528625E-1	-9,000000000E-2	1,200000000E-1	-1,800000000E-1	2,343074903E-1
3,875430057E-1	-7,000000000E-2	1,600000000E-1	-3,000000000E-2	1,772004515E-1
3,965063890E-1	1,200000000E-1	-1,200000000E-1	-2,300000000E-1	2,858321186E-1
4,058091869E-1	1,400000000E-1	-1,400000000E-1	9,000000000E-2	2,174856317E-1
4,169501833E-1	8,000000000E-2	5,000000000E-2	-2,000000000E-1	2,211334439E-1
4,269795558E-1	-6,000000000E-2	1,100000000E-1	1,500000000E-1	1,954482029E-1
4,380210065E-1	-1,000000000E-2	-1,500000000E-1	6,000000000E-2	1,618641406E-1
4,484401580E-1	1,200000000E-1	4,000000000E-2	-1,500000000E-1	1,962141687E-1
4,591654708E-1	-5,000000000E-2	-8,000000000E-2	1,000000000E-1	1,374772708E-1
4,679399577E-1	1,100000000E-1	1,700000000E-1	-8,000000000E-2	2,177154106E-1
4,780633891E-1	1,000000000E-1	-5,000000000E-2	1,000000000E-2	1,122497216E-1
4,880867058E-1	-1,000000000E-2	-1,500000000E-1	3,000000000E-2	1,532970972E-1
4,992007240E-1	1,400000000E-1	1,000000000E-1	-1,100000000E-1	2,042057786E-1
5,087845161E-1	-4,000000000E-2	-7,000000000E-2	-4,000000000E-2	9,000000000E-2
5,190790683E-1	9,000000000E-2	-3,000000000E-2	1,400000000E-1	1,691153453E-1
5,277568233E-1	5,000000000E-2	-1,300000000E-1	1,800000000E-1	2,275961335E-1
5,374197187E-1	-6,000000000E-2	-6,000000000E-2	1,700000000E-1	1,900000000E-1
5,468888277E-1	1,000000000E-2	-1,300000000E-1	3,000000000E-2	1,337908816E-1
5,558394269E-1	4,000000000E-2	-8,000000000E-2	1,900000000E-1	2,100000000E-1
5,667884412E-1	1,000000000E-2	3,000000000E-2	-1,800000000E-1	1,827566688E-1
5,764267797E-1	-1,400000000E-1	-7,000000000E-2	2,400000000E-1	2,865309756E-1
5,878630234E-1	1,700000000E-1	6,000000000E-2	-2,300000000E-1	2,922327839E-1
5,981329985E-1	1,600000000E-1	1,400000000E-1	2,000000000E-1	2,918903904E-1
6,084481672E-1	-1,600000000E-1	3,000000000E-2	1,500000000E-1	2,213594362E-1
6,188621570E-1	1,600000000E-1	-1,600000000E-1	-5,000000000E-2	2,317326045E-1
6,293915077E-1	1,000000000E-2	1,600000000E-1	1,500000000E-1	2,195449840E-1
6,383438717E-1	-1,300000000E-1	-1,100000000E-1	2,300000000E-1	2,861817604E-1
6,481648121E-1	1,100000000E-1	-5,000000000E-2	-1,700000000E-1	2,085665361E-1
6,573835040E-1	-2,000000000E-2	1,000000000E-2	7,000000000E-2	7,348469228E-2
6,670909989E-1	7,000000000E-2	4,000000000E-2	-2,500000000E-1	2,626785107E-1
6,758811112E-1	1,100000000E-1	-6,000000000E-2	8,000000000E-2	1,486606875E-1
6,872845954E-1	1,000000000E-2	-2,000000000E-2	-2,200000000E-1	2,211334439E-1
6,964296075E-1	-1,600000000E-1	4,000000000E-2	8,000000000E-2	1,833030278E-1
7,069449030E-1	1,100000000E-1	-2,000000000E-2	-2,400000000E-1	2,647640459E-1
7,163461632E-1	7,000000000E-2	-8,000000000E-2	-5,000000000E-2	1,174734012E-1
7,274683943E-1	1,400000000E-1	-3,000000000E-2	1,800000000E-1	2,300000000E-1
7,379550385E-1	-8,000000000E-2	-4,000000000E-2	-1,000000000E-1	1,341640786E-1
7,468498859E-1	1,000000000E-1	-7,000000000E-2	2,300000000E-1	2,603843313E-1
7,578851089E-1	1,300000000E-1	4,000000000E-2	-1,000000000E-2	1,363818170E-1
7,692199534E-1	-5,000000000E-2	0,000000000E0	-1,600000000E-1	1,676305461E-1
7,804317038E-1	-3,000000000E-2	-3,000000000E-2	2,200000000E-1	2,240535650E-1
7,906408612E-1	-6,000000000E-2	7,000000000E-2	-1,700000000E-1	1,933907961E-1
7,995772411E-1	-1,700000000E-1	1,100000000E-1	5,000000000E-2	2,085665361E-1
8,086546316E-1	-9,000000000E-2	5,000000000E-2	2,200000000E-1	2,428991560E-1
8,199383486E-1	-6,000000000E-2	-6,000000000E-2	2,200000000E-1	2,357965225E-1
8,300953281E-1	-1,400000000E-1	1,500000000E-1	3,000000000E-2	2,073644135E-1
8,391369856E-1	9,000000000E-2	-1,400000000E-1	-1,400000000E-1	2,174856317E-1
8,502891563E-1	-3,000000000E-2	1,100000000E-1	0,000000000E0	1,140175425E-1
8,607138714E-1	2,000000000E-2	-3,000000000E-2	-1,000000000E-1	1,063014581E-1
8,709229542E-1	-8,000000000E-2	-4,000000000E-2	-9,000000000E-2	1,268857754E-1
8,805518177E-1	-5,000000000E-2	1,200000000E-1	-9,000000000E-2	1,581138830E-1
8,902846836E-1	9,000000000E-2	5,000000000E-2	-1,500000000E-1	1,819340540E-1
8,995031512E-1	-1,000000000E-2	1,700000000E-1	-2,300000000E-1	2,861817604E-1
9,081173231E-1	3,000000000E-2	1,300000000E-1	1,300000000E-1	1,862793601E-1
9,192459795E-1	-3,000000000E-2	-1,300000000E-1	-2,400000000E-1	2,745906044E-1
9,291491701E-1	2,000000000E-2	0,000000000E0	4,000000000E-2	4,472135955E-2
9,392920757E-1	1,400000000E-1	9,000000000E-2	-7,000000000E-2	1,805547009E-1
9,487585657E-1	-8,000000000E-2	-1,500000000E-1	8,000000000E-2	1,878829423E-1
9,595125404E-1	1,000000000E-2	1,000000000E-2	4,000000000E-2	4,242640687E-2
9,680881310E-1	7,000000000E-2	1,700000000E-1	-1,000000000E-2	1,841195264E-1
9,777046869E-1	-1,400000000E-1	-9,000000000E-2	1,400000000E-1	2,174856317E-1
9,862957377E-1	1,600000000E-1	-1,300000000E-1	4,000000000E-2	2,100000000E-1
9,951644140E-1	-0,000000000E0	-7,000000000E-2	2,000000000E-1	2,118962010E-1
1,006565859E0	-9,000000000E-2	-5,000000000E-2	4,000000000E-2	1,104536102E-1
1,017039141E0	9,000000000E-2	-7,000000000E-2	1,900000000E-1	2,215851981E-1
1,026823802E0	1,100000000E-1	-2,000000000E-2	1,800000000E-1	2,118962010E-1
1,036895022E0	5,000000000E-2	1,200000000E-1	1,000000000E-1	1,640121947E-1
1,048013450E0	1,500000000E-1	1,000000000E-2	-9,000000000E-2	1,752141547E-1
1,057546082E0	-1,400000000E-1	3,000000000E-2	-1,000000000E-2	1,435270009E-1
1,067816955E0	1,000000000E-2	-1,400000000E-1	-2,100000000E-1	2,525866188E-1
1,078368008E0	9,000000000E-2	-1,500000000E-1	1,100000000E-1	2,066397832E-1
1,087934249E0	1,500000000E-1	1,600000000E-1	7,000000000E-2	2,302172887E-1
1,097991544E0	5,000000000E-2	-5,000000000E-2	1,600000000E-1	1,749285568E-1
1,108787287E0	4,000000000E-2	1,600000000E-1	-2,100000000E-1	2,670205985E-1
1,120014825E0	-4,000000000E-2	-6,000000000E-2	-1,900000000E-1	2,032240143E-1
1,128968011E0	3,000000000E-2	5,000000000E-2	7,000000000E-2	9,110433579E-2
1,140268270E0	2,000000000E-2	6,000000000E-2	1,200000000E-1	1,356465997E-1
1,148783806E0	1,400000000E-1	-1,400000000E-1	-2,100000000E-1	2,886173938E-1
1,159542739E0	1,100000000E-1	-1,500000000E-1	-2,300000000E-1	2,958039892E-1
1,170474319E0	8,000000000E-2	-2,000000000E-2	-9,000000000E-2	1,220655562E-1
1,179384611E0	1,500000000E-1	-1,300000000E-1	-8,000000000E-2	2,140093456E-1
1,189141322E0	-1,500000000E-1	-7,000000000E-2	-2,200000000E-1	2,753179980E-1
1,200087091E0	9,000000000E-2	-1,100000000E-1	-2,000000000E-1	2,453568829E-1
1,208629905E0	-1,000000000E-2	-7,000000000E-2	-1,500000000E-1	1,658312395E-1
1,219015291E0	9,000000000E-2	-2,000000000E-2	-2,400000000E-1	2,570992026E-1
1,229894362E0	-7,000000000E-2	-7,000000000E-2	-1,800000000E-1	2,054263858E-1
1,239933372E0	-1,000000000E-2	-6,000000000E-2	-2,400000000E-1	2,475883681E-1
1,250610921E0	1,100000000E-1	-0,000000000E0	-7,000000000E-2	1,303840481E-1
1,259790191E0	-1,600000000E-1	6,000000000E-2	1,200000000E-1	2,088061302E-1
1,268885754E0	-7,000000000E-2	-1,600000000E-1	8,000000000E-2	1,920937271E-1
1,278475135E0	-0,000000000E0	1,700000000E-1	5,000000000E-2	1,772004515E-1
1,287513353E0	1,200000000E-1	-2,000000000E-2	-2,000000000E-2	1,232882801E-1
1,297051538E0	-8,000000000E-2	1,500000000E-1	-1,600000000E-1	2,334523506E-1
1,308395910E0	1,100000000E-1	-1,700000000E-1	-2,300000000E-1	3,064310689E-1
1,318615908E0	-9,000000000E-2	-1,500000000E-1	-1,600000000E-1	2,370653918E-1
1,328136112E0	-7,000000000E-2	-1,400000000E-1	2,200000000E-1	2,700000000E-1
1,337450686E0	2,000000000E-2	1,400000000E-1	1,600000000E-1	2,135415650E-1
1,348806805E0	5,000000000E-2	-3,000000000E-2	3,000000000E-2	6,557438524E-2
1,358640239E0	1,300000000E-1	1,200000000E-1	6,000000000E-2	1,868154169E-1
1,370081423E0	1,300000000E-1	7,000000000E-2	1,200000000E-1	1,902629759E-1
1,380127991E0	-9,000000000E-2	-1,400000000E-1	1,600000000E-1	2,308679276E-1
1,390191490E0	9,000000000E-2	-5,000000000E-2	-1,300000000E-1	1,658312395E-1
1,401381111E0	5,000000000E-2	-6,000000000E-2	1,500000000E-1	1,691153453E-1
1,412109414E0	-4,000000000E-2	-2,000000000E-2	7,000000000E-2	8,306623863E-2
1,422351372E0	1,000000000E-1	9,000000000E-2	-1,100000000E-1	1,737814720E-1
1,432131321E0	1,400000000E-1	-1,500000000E-1	-1,100000000E-1	2,328089345E-1
1,443265884E0	-1,000000000E-2	1,500000000E-1	-1,600000000E-1	2,195449840E-1
1,453000823E0	1,500000000E-1	-1,000000000E-2	2,000000000E-2	1,516575089E-1
1,464269102E0	-1,300000000E-1	-5,000000000E-2	2,300000000E-1	2,688865932E-1
1,472975248E0	-1,200000000E-1	7,000000000E-2	1,400000000E-1	1,972308292E-1
1,482765238E0	9,000000000E-2	-8,000000000E-2	-1,700000000E-1	2,083266666E-1
1,492823783E0	-7,000000000E-2	7,000000000E-2	-1,900000000E-1	2,142428529E-1
1,504176597E0	5,000000000E-2	-1,000000000E-2	-1,100000000E-1	1,212435565E-1
1,513429595E0	6,000000000E-2	6,000000000E-2	-1,800000000E-1	1,989974874E-1
1,524347712E0	-3,000000000E-2	1,000000000E-2	-2,200000000E-1	2,222611077E-1
1,534877126E0	2,200000000E-1	4,000000000E-2	5,000000000E-2	2,291287847E-1
1,545528384E0	2,500000000E-1	2,800000000E-1	-2,000000000E-1	4,253234064E-1
1,555917250E0	7,000000000E-2	1,900000000E-1	-1,100000000E-1	2,304343724E-1
1,567331932E0	1,300000000E-1	1,200000000E-1	-2,700000000E-1	3,228002478E-1
1,576829977E0	3,400000000E-1	2,200000000E-1	4,000000000E-2	4,069397990E-1
1,586524803E0	3,900000000E-1	2,300000000E-1	-1,700000000E-1	4,836320916E-1
1,595633539E0	3,800000000E-1	-7,000000000E-2	-4,000000000E-1	5,561474625E-1
1,604285651E0	2,600000000E-1	1,900000000E-1	-7,000000000E-2	3,295451411E-1
1,613424375E0	2,100000000E-1	-2,000000000E-1	-3,000000000E-1	4,172529209E-1
1,624670769E0	2,300000000E-1	-5,000000000E-2	-1,700000000E-1	2,903446228E-1
1,635691275E0	1,200000000E-1	-2,300000000E-1	-1,900000000E-1	3,215587038E-1
1,644528492E0	2,100000000E-1	-2,800000000E-1	-2,000000000E-2	3,505709629E-1
1,654839829E0	9,000000000E-2	-2,500000000E-1	-3,000000000E-2	2,673948391E-1
1,664777419E0	3,000000000E-2	-2,500000000E-1	7,000000000E-2	2,613426869E-1
1,675061473E0	5,000000000E-2	-3,500000000E-1	8,000000000E-2	3,624913792E-1
1,685539298E0	-1,200000000E-1	-3,000000000E-1	5,800000000E-1	6,639277069E-1
1,694959277E0	-5,000000000E-2	-2,400000000E-1	2,800000000E-1	3,721558813E-1
1,706343329E0	-6,000000000E-2	-5,500000000E-1	4,000000000E-1	6,827151675E-1
1,716240850E0	-1,700000000E-1	-5,600000000E-1	5,200000000E-1	7,828793010E-1
1,726625152E0	-1,800000000E-1	-4,600000000E-1	4,000000000E-1	6,356099433E-1
1,737030831E0	-3,400000000E-1	-5,700000000E-1	4,600000000E-1	8,075270893E-1
1,746082499E0	-5,500000000E-1	-6,400000000E-1	5,300000000E-1	9,964938535E-1
1,754768095E0	-5,900000000E-1	-6,000000000E-1	5,800000000E-1	1,022007828E0
1,764502646E0	-9,100000000E-1	-5,800000000E-1	5,000000000E-1	1,189327541E0
1,775294736E0	-9,700000000E-1	-5,500000000E-1	3,200000000E-1	1,160086204E0
1,786240401E0	-1,360000000E0	-5,900000000E-1	3,600000000E-1	1,525549081E0
1,796930369E0	-1,500000000E0	-6,900000000E-1	2,700000000E-1	1,673021219E0
1,805769984E0	-1,530000000E0	-9,100000000E-1	-8,000000000E-2	1,781965207E0
1,817010048E0	-1,910000000E0	-7,800000000E-1	-2,200000000E-1	2,074825294E0
1,827916158E0	-2,200000000E0	-9,100000000E-1	-1,400000000E-1	2,384889935E0
1,839049232E0	-2,370000000E0	-1,170000000E0	-3,400000000E-1	2,664845211E0
1,849119145E0	-2,790000000E0	-9,700000000E-1	-1,900000000E-1	2,959915539E0
1,860366051E0	-2,890000000E0	-1,290000000E0	-6,300000000E-1	3,226933529E0
1,869006008E0	-3,390000000E0	-1,210000000E0	-3,600000000E-1	3,617430027E0
1,877596874E0	-3,520000000E0	-1,270000000E0	-4,400000000E-1	3,767877387E0
1,886157521E0	-3,750000000E0	-1,260000000E0	-4,600000000E-1	3,982674980E0
1,895415827E0	-3,940000000E0	-1,420000000E0	-6,000000000E-2	4,188508088E0
1,904661536E0	-3,910000000E0	-1,390000000E0	-2,900000000E-1	4,159843747E0
1,913724046E0	-4,430000000E0	-1,790000000E0	9,000000000E-2	4,778817845E0
1,923925214E0	-4,540000000E0	-1,890000000E0	2,500000000E-1	4,924043054E0
1,932542171E0	-4,610000000E0	-1,910000000E0	4,100000000E-1	5,006825341E0
1,942813335E0	-4,730000000E0	-1,870000000E0	1,000000000E-1	5,087219280E0
1,951811368E0	-4,840000000E0	-2,010000000E0	2,100000000E-1	5,244978551E0
1,962344990E0	-5,100000000E0	-2,230000000E0	2,600000000E-1	5,572297551E0
1,970908216E0	-5,240000000E0	-2,270000000E0	4,100000000E-1	5,725259819E0
1,980339926E0	-5,080000000E0	-2,230000000E0	7,100000000E-1	5,593156533E0
1,991654950E0	-5,380000000E0	-2,410000000E0	5,400000000E-1	5,919805740E0
2,001770139E0	-5,400000000E0	-2,380000000E0	2,100000000E-1	5,904955546E0
2,012704901E0	-5,300000000E0	-2,600000000E0	5,000000000E-2	5,903600596E0
2,023178980E0	-5,130000000E0	-2,560000000E0	1,900000000E-1	5,736427460E0
2,033511232E0	-4,850000000E0	-2,710000000E0	-9,000000000E-2	5,556500697E0
2,042584990E0	-4,780000000E0	-2,890000000E0	-6,000000000E-1	5,617873263E0
2,052808174E0	-4,650000000E0	-3,040000000E0	-5,600000000E-1	5,583699490E0
2,061427234E0	-4,470000000E0	-3,180000000E0	-9,600000000E-1	5,569102262E0
2,072332227E0	-4,120000000E0	-3,260000000E0	-1,160000000E0	5,380297390E0
2,083712439E0	-3,800000000E0	-3,340000000E0	-1,490000000E0	5,274059158E0
2,094774467E0	-3,520000000E0	-3,450000000E0	-1,220000000E0	5,077528927E0
2,103426596E0	-3,280000000E0	-3,590000000E0	-1,570000000E0	5,109931506E0
2,112942576E0	-2,860000000E0	-3,570000000E0	-1,540000000E0	4,826603361E0
2,122396585E0	-2,250000000E0	-3,780000000E0	-1,740000000E0	4,730591929E0
2,131234736E0	-1,900000000E0	-3,590000000E0	-1,590000000E0	4,361903254E0
2,141614572E0	-1,350000000E0	-3,790000000E0	-1,310000000E0	4,231158234E0
2,152506946E0	-1,070000000E0	-4,030000000E0	-1,030000000E0	4,294962165E0
2,161948111E0	-2,800000000E-1	-4,020000000E0	-7,000000000E-1	4,090085574E0
2,173036539E0	1,200000000E-1	-4,120000000E0	-6,700000000E-1	4,175847219E0
2,183927919E0	8,900000000E-1	-4,220000000E0	-2,900000000E-1	4,322568681E0
2,192815333E0	1,260000000E0	-4,160000000E0	1,300000000E-1	4,348574479E0
2,203615911E0	1,820000000E0	-4,330000000E0	4,900000000E-1	4,722435812E0
2,214763773E0	2,520000000E0	-4,390000000E0	1,150000000E0	5,190857347E0
2,223855620E0	2,930000000E0	-4,240000000E0	1,220000000E0	5,296310036E0
2,234076544E0	3,470000000E0	-4,380000000E0	1,510000000E0	5,788384922E0
2,244492794E0	3,810000000E0	-4,330000000E0	1,800000000E0	6,041936776E0
2,254820797E0	4,460000000E0	-4,430000000E0	1,970000000E0	6,587670301E0
2,263609534E0	4,780000000E0	-4,430000000E0	1,920000000E0	6,794093023E0
2,274093108E0	5,130000000E0	-4,510000000E0	1,740000000E0	7,048730382E0
2,284488972E0	5,570000000E0	-4,460000000E0	2,000000000E0	7,410566780E0
2,295460629E0	6,090000000E0	-4,390000000E0	1,490000000E0	7,653776845E0
2,306371167E0	6,380000000E0	-4,340000000E0	1,590000000E0	7,878331042E0
2,315852671E0	6,840000000E0	-4,040000000E0	1,010000000E0	8,007952298E0
2,326518813E0	6,890000000E0	-4,030000000E0	6,600000000E-1	8,009282115E0
2,337620634E0	7,100000000E0	-3,740000000E0	4,200000000E-1	8,035794920E0
2,348799477E0	7,640000000E0	-3,320000000E0	2,300000000E-1	8,333360667E0
2,357784014E0	7,530000000E0	-2,810000000E0	-3,100000000E-1	8,043202099E0
2,366364121E0	7,690000000E0	-2,390000000E0	-5,000000000E-1	8,068345555E0
2,376816543E0	7,670000000E0	-1,940000000E0	-7,600000000E-1	7,947962003E0
2,385960572E0	7,700000000E0	-1,480000000E0	-1,060000000E0	7,912268954E0
2,396151701E0	7,780000000E0	-7,300000000E-1	-1,060000000E0	7,885740295E0
2,407486115E0	7,890000000E0	1,000000000E-1	-7,400000000E-1	7,925257094E0
2,417124074E0	7,570000000E0	5,900000000E-1	-6,600000000E-1	7,621587761E0
2,426382397E0	7,780000000E0	1,420000000E0	-8,700000000E-1	7,956236548E0
2,436251927E0	7,730000000E0	2,170000000E0	-3,400000000E-1	8,036006471E0
2,446723659E0	7,440000000E0	2,830000000E0	-5,400000000E-1	7,978351960E0
2,455526956E0	7,250000000E0	3,380000000E0	5,000000000E-2	7,999337473E0
2,465168710E0	7,050000000E0	4,210000000E0	-2,000000000E-2	8,211394522E0
2,474069874E0	6,880000000E0	4,660000000E0	4,200000000E-1	8,320240381E0
2,484557213E0	6,740000000E0	5,330000000E0	6,700000000E-1	8,618897841E0
2,495548870E0	6,710000000E0	5,960000000E0	8,900000000E-1	9,018747141E0
2,505179432E0	6,190000000E0	6,490000000E0	1,250000000E0	9,055313357E0
2,514794603E0	6,210000000E0	6,470000000E0	1,000000000E0	9,023580221E0
2,524913168E0	5,910000000E0	6,620000000E0	7,800000000E-1	8,908473494E0
2,534058342E0	5,460000000E0	6,840000000E0	7,100000000E-1	8,780734593E0
2,543300571E0	5,240000000E0	6,960000000E0	8,300000000E-1	8,751462735E0
2,552790127E0	5,250000000E0	6,540000000E0	2,600000000E-1	8,390572090E0
2,562662404E0	5,000000000E0	6,530000000E0	-1,200000000E-1	8,225284190E0
2,571406999E0	4,680000000E0	6,060000000E0	-3,900000000E-1	7,666687681E0
2,582165195E0	4,630000000E0	5,830000000E0	-4,400000000E-1	7,457841511E0
2,592402359E0	4,190000000E0	5,220000000E0	-1,150000000E0	6,791686094E0
2,601801441E0	4,070000000E0	4,920000000E0	-1,680000000E0	6,602552537E0
2,610534080E0	3,790000000E0	4,340000000E0	-1,750000000E0	6,021810359E0
2,621323623E0	3,770000000E0	3,810000000E0	-2,240000000E0	5,809182387E0
2,630216860E0	3,400000000E0	3,130000000E0	-2,370000000E0	5,193630715E0
2,639116480E0	3,260000000E0	2,510000000E0	-2,300000000E0	4,713565529E0
2,648008533E0	3,290000000E0	2,010000000E0	-2,510000000E0	4,600467368E0
2,656752320E0	3,030000000E0	1,520000000E0	-2,580000000E0	4,260011737E0
2,667971497E0	2,860000000E0	8,400000000E-1	-2,210000000E0	3,710700742E0
2,677279230E0	2,690000000E0	3,600000000E-1	-2,230000000E0	3,512634339E0
2,686698461E0	2,440000000E0	2,000000000E-2	-1,950000000E0	3,123539659E0
2,697696844E0	2,050000000E0	-5,000000000E-1	-1,300000000E0	2,478406746E0
2,708056615E0	1,970000000E0	-7,600000000E-1	-7,500000000E-1	2,240758800E0
2,717118045E0	1,530000000E0	-1,160000000E0	-3,900000000E-1	1,959234544E0
2,726922485E0	1,310000000E0	-1,410000000E0	-3,000000000E-2	1,924863632E0
2,738074253E0	1,040000000E0	-1,590000000E0	6,000000000E-1	1,992410600E0
2,747700375E0	6,200000000E-1	-1,690000000E0	9,000000000E-1	2,012585402E0
2,758333019E0	2,500000000E-1	-1,910000000E0	1,500000000E0	2,441434005E0
2,767123442E0	1,200000000E-1	-2,180000000E0	2,120000000E0	3,043221977E0
2,777805417E0	-2,600000000E-1	-2,100000000E0	2,300000000E0	3,125315984E0
2,788634837E0	-8,300000000E-1	-2,300000000E0	2,700000000E0	3,642650134E0
2,799612138E0	-1,300000000E0	-2,150000000E0	2,700000000E0	3,688156721E0
2,810134741E0	-1,850000000E0	-2,390000000E0	2,610000000E0	3,993331942E0
2,819746939E0	-2,200000000E0	-2,280000000E0	2,600000000E0	4,098585122E0
2,828439575E0	-2,610000000E0	-2,470000000E0	2,250000000E0	4,239752351E0
2,838495904E0	-2,990000000E0	-2,290000000E0	2,030000000E0	4,278445980E0
2,849268283E0	-3,870000000E0	-2,640000000E0	1,550000000E0	4,934470590E0
2,858340798E0	-4,050000000E0	-2,510000000E0	1,110000000E0	4,892310293E0
2,867639510E0	-4,520000000E0	-2,580000000E0	9,200000000E-1	5,285186846E0
2,877747870E0	-5,300000000E0	-2,820000000E0	1,500000000E-1	6,005405898E0
2,888492865E0	-5,750000000E0	-2,800000000E0	1,800000000E-1	6,398038762E0
2,899682625E0	-6,320000000E0	-3,010000000E0	-2,200000000E-1	7,003634771E0
2,908559849E0	-6,850000000E0	-3,120000000E0	-5,300000000E-1	7,545714015E0
2,917612660E0	-7,440000000E0	-3,210000000E0	-9,100000000E-1	8,153882511E0
2,928511271E0	-7,870000000E0	-3,420000000E0	-1,060000000E0	8,646207261E0
2,938944836E0	-8,280000000E0	-3,300000000E0	-1,120000000E0	8,983473716E0
2,949607754E0	-9,020000000E0	-3,630000000E0	-1,030000000E0	9,777433201E0
2,961098068E0	-9,360000000E0	-3,720000000E0	-9,900000000E-1	1,012067685E1
2,972415607E0	-9,930000000E0	-3,890000000E0	-4,600000000E-1	1,067467096E1
2,983444683E0	-1,000000000E1	-3,770000000E0	-1,200000000E-1	1,068771725E1
2,994276030E0	-1,031000000E1	-3,990000000E0	0,000000000E0	1,105514360E1
3,003961088E0	-1,078000000E1	-4,120000000E0	4,600000000E-1	1,154964935E1
3,014384775E0	-1,071000000E1	-4,210000000E0	4,600000000E-1	1,151693536E1
3,023438112E0	-1,082000000E1	-4,230000000E0	9,500000000E-1	1,165623438E1
3,034216595E0	-1,108000000E1	-4,420000000E0	1,190000000E0	1,198828178E1
3,044989667E0	-1,092000000E1	-4,580000000E0	1,140000000E0	1,189631876E1
3,055653553E0	-1,078000000E1	-4,770000000E0	1,290000000E0	1,185855809E1
3,065487950E0	-1,076000000E1	-4,810000000E0	1,090000000E0	1,183646062E1
3,075122491E0	-1,050000000E1	-4,740000000E0	9,100000000E-1	1,155619747E1
3,084881804E0	-1,008000000E1	-4,990000000E0	5,500000000E-1	1,126095023E1
3,093481822E0	-9,920000000E0	-5,110000000E0	8,000000000E-2	1,115907254E1
3,104514782E0	-9,550000000E0	-5,070000000E0	-3,000000000E-1	1,081653364E1
3,114641892E0	-9,260000000E0	-5,450000000E0	-3,600000000E-1	1,075079997E1
3,124304447E0	-8,760000000E0	-5,540000000E0	-1,100000000E0	1,042301300E1
3,134448534E0	-7,950000000E0	-5,360000000E0	-1,270000000E0	9,671866418E0
3,145113454E0	-7,350000000E0	-5,390000000E0	-1,950000000E0	9,320788593E0
3,154757837E0	-6,710000000E0	-5,770000000E0	-1,970000000E0	9,066305753E0
3,165749759E0	-6,050000000E0	-5,860000000E0	-2,160000000E0	8,695268829E0
3,177008149E0	-5,240000000E0	-5,930000000E0	-2,510000000E0	8,301963623E0
3,186670446E0	-4,530000000E0	-5,780000000E0	-2,850000000E0	7,877296491E0
3,195583894E0	-3,770000000E0	-5,980000000E0	-2,450000000E0	7,481697668E0
3,206365014E0	-3,070000000E0	-5,870000000E0	-2,410000000E0	7,049106326E0
3,217843861E0	-2,090000000E0	-5,880000000E0	-1,910000000E0	6,526147409E0
3,226787825E0	-1,380000000E0	-6,130000000E0	-1,930000000E0	6,573142323E0
3,237425852E0	-4,600000000E-1	-5,850000000E0	-1,400000000E0	6,032752274E0
3,248401823E0	2,600000000E-1	-6,080000000E0	-5,200000000E-1	6,107732804E0
3,259663538E0	1,080000000E0	-5,980000000E0	5,000000000E-2	6,076948247E0
3,268533683E0	1,780000000E0	-6,050000000E0	5,800000000E-1	6,333032449E0
3,277309112E0	2,470000000E0	-6,050000000E0	8,500000000E-1	6,589833078E0
3,288772727E0	3,530000000E0	-6,010000000E0	1,500000000E0	7,129586243E0
3,297622997E0	4,090000000E0	-6,130000000E0	2,010000000E0	7,638396429E0
3,306653419E0	4,690000000E0	-5,960000000E0	2,200000000E0	7,896689180E0
3,316878278E0	5,220000000E0	-5,980000000E0	2,190000000E0	8,234373079E0
3,326717097E0	5,660000000E0	-5,910000000E0	2,390000000E0	8,525010264E0
3,337468274E0	6,350000000E0	-5,920000000E0	2,370000000E0	8,999211077E0
3,346539946E0	6,930000000E0	-5,810000000E0	2,370000000E0	9,348684399E0
3,357783229E0	7,290000000E0	-5,580000000E0	2,150000000E0	9,428838741E0
3,366934813E0	7,670000000E0	-5,360000000E0	2,100000000E0	9,590020855E0
3,377742146E0	7,940000000E0	-5,440000000E0	1,860000000E0	9,802897531E0
3,386444957E0	8,100000000E0	-5,010000000E0	1,650000000E0	9,666054004E0
3,396365165E0	8,490000000E0	-4,810000000E0	1,010000000E0	9,810010194E0
3,404962840E0	8,600000000E0	-4,690000000E0	5,200000000E-1	9,809510691E0
3,414404272E0	8,680000000E0	-4,330000000E0	5,000000000E-1	9,712944971E0
3,423840964E0	8,740000000E0	-3,580000000E0	1,300000000E-1	9,445681553E0
3,434500209E0	8,940000000E0	-3,220000000E0	-2,100000000E-1	9,504530499E0
3,444365262E0	8,810000000E0	-2,660000000E0	-9,600000000E-1	9,252745538E0
3,453035585E0	8,870000000E0	-1,890000000E0	-8,600000000E-1	9,109807901E0
3,464521670E0	8,670000000E0	-1,060000000E0	-9,800000000E-1	8,789362889E0
3,475687768E0	8,720000000E0	-1,500000000E-1	-1,050000000E0	8,784270032E0
3,486936739E0	8,420000000E0	6,000000000E-1	-1,140000000E0	8,517980981E0
3,496176466E0	8,290000000E0	1,260000000E0	-6,300000000E-1	8,408840586E0
3,505858797E0	8,260000000E0	2,030000000E0	-6,100000000E-1	8,527637422E0
3,515040335E0	7,990000000E0	2,700000000E0	-6,300000000E-1	8,457363655E0
3,523915054E0	7,790000000E0	3,510000000E0	-2,200000000E-1	8,547081373E0
3,532514126E0	7,440000000E0	4,220000000E0	2,200000000E-1	8,556307615E0
3,542524135E0	7,370000000E0	4,570000000E0	2,500000000E-1	8,675499986E0
3,551393536E0	6,980000000E0	5,200000000E0	7,600000000E-1	8,737162011E0
3,560422450E0	6,950000000E0	5,650000000E0	6,700000000E-1	8,981865062E0
3,571503877E0	6,620000000E0	6,020000000E0	9,600000000E-1	8,999244413E0
3,581456605E0	6,280000000E0	6,520000000E0	9,600000000E-1	9,103318076E0
3,590507715E0	6,100000000E0	6,860000000E0	8,700000000E-1	9,220981510E0
3,601017309E0	5,730000000E0	6,740000000E0	1,150000000E0	8,920930445E0
3,610314904E0	5,570000000E0	6,910000000E0	7,100000000E-1	8,903768865E0
3,620395715E0	5,110000000E0	6,880000000E0	6,600000000E-1	8,595469737E0
3,629744574E0	5,190000000E0	6,490000000E0	4,200000000E-1	8,320612958E0
3,639793058E0	4,890000000E0	6,430000000E0	-2,600000000E-1	8,082363516E0
3,650178658E0	4,430000000E0	6,000000000E0	-8,300000000E-1	7,504252128E0
3,660287283E0	4,250000000E0	5,510000000E0	-1,010000000E0	7,031550327E0
3,669974095E0	4,170000000E0	4,870000000E0	-1,560000000E0	6,598439209E0
3,680846536E0	4,010000000E0	4,290000000E0	-1,650000000E0	6,099729502E0
3,691966849E0	3,580000000E0	3,570000000E0	-2,360000000E0	5,579507147E0
3,701004962E0	3,690000000E0	3,300000000E0	-2,300000000E0	5,458580402E0
3,709913889E0	3,300000000E0	2,710000000E0	-2,790000000E0	5,100803858E0
3,718753464E0	3,360000000E0	1,920000000E0	-2,730000000E0	4,735915962E0
3,730192254E0	3,040000000E0	1,390000000E0	-2,720000000E0	4,309535938E0
3,741517028E0	2,720000000E0	6,500000000E-1	-2,200000000E0	3,558215845E0
3,750709029E0	2,480000000E0	3,600000000E-1	-2,070000000E0	3,250369210E0
3,762118752E0	2,130000000E0	-2,400000000E-1	-1,620000000E0	2,686801072E0
3,771242205E0	1,910000000E0	-4,900000000E-1	-1,490000000E0	2,471497522E0
3,781261633E0	1,850000000E0	-9,200000000E-1	-8,700000000E-1	2,241829610E0
3,791253788E0	1,630000000E0	-1,440000000E0	-4,000000000E-2	2,175339054E0
3,802498656E0	1,350000000E0	-1,610000000E0	4,500000000E-1	2,148743819E0
3,811120242E0	8,900000000E-1	-1,700000000E0	9,800000000E-1	2,154646143E0
3,820566295E0	7,800000000E-1	-1,720000000E0	1,330000000E0	2,309913418E0
3,830866219E0	1,900000000E-1	-2,020000000E0	1,630000000E0	2,602575647E0
3,839565414E0	9,000000000E-2	-2,150000000E0	2,310000000E0	3,157008077E0
3,848775065E0	-2,800000000E-1	-2,170000000E0	2,240000000E0	3,131277694E0
3,858670256E0	-9,600000000E-1	-2,230000000E0	2,380000000E0	3,399838231E0
3,869812827E0	-1,200000000E0	-2,310000000E0	2,690000000E0	3,743287325E0
3,880595705E0	-1,760000000E0	-2,300000000E0	2,350000000E0	3,729624646E0
3,891582647E0	-2,290000000E0	-2,400000000E0	2,510000000E0	4,159831727E0
3,902365856E0	-2,790000000E0	-2,380000000E0	2,200000000E0	4,276505583E0
3,912989018E0	-3,450000000E0	-2,320000000E0	1,670000000E0	4,480379448E0
3,924038098E0	-4,050000000E0	-2,390000000E0	1,300000000E0	4,878995798E0
3,934582528E0	-4,670000000E0	-2,760000000E0	8,400000000E-1	5,489271354E0
3,945289578E0	-5,080000000E0	-2,710000000E0	1,800000000E-1	5,760460051E0
3,954694511E0	-5,580000000E0	-2,760000000E0	-2,000000000E-1	6,228482961E0
3,963697433E0	-6,330000000E0	-3,030000000E0	-3,900000000E-1	7,028648519E0
3,974467008E0	-6,690000000E0	-3,000000000E0	-8,900000000E-1	7,385675325E0
3,983464520E0	-7,340000000E0	-3,210000000E0	-1,010000000E0	8,074639311E0
3,994722888E0	-7,940000000E0	-3,280000000E0	-1,080000000E0	8,658429419E0
4,005012816E0	-8,430000000E0	-3,400000000E0	-1,010000000E0	9,145764047E0
4,014501119E0	-8,730000000E0	-3,340000000E0	-1,030000000E0	9,403690765E0
4,025811048E0	-9,310000000E0	-3,670000000E0	-1,060000000E0	1,006323010E1
4,034776439E0	-9,670000000E0	-3,670000000E0	-6,000000000E-1	1,036039575E1
4,044819838E0	-1,007000000E1	-3,770000000E0	-3,400000000E-1	1,075794590E1
4,053594500E0	-1,026000000E1	-3,960000000E0	-1,600000000E-1	1,099885449E1
4,064990783E0	-1,039000000E1	-3,890000000E0	1,900000000E-1	1,109595872E1
4,075216911E0	-1,086000000E1	-4,220000000E0	2,600000000E-1	1,165399502E1
4,086127911E0	-1,085000000E1	-4,350000000E0	8,400000000E-1	1,171966723E1
4,095473678E0	-1,089000000E1	-4,330000000E0	9,000000000E-1	1,175376535E1
4,106379068E0	-1,110000000E1	-4,520000000E0	8,500000000E-1	1,201511132E1
4,116987594E0	-1,097000000E1	-4,560000000E0	1,160000000E0	1,193650284E1
4,127418639E0	-1,064000000E1	-4,880000000E0	1,090000000E0	1,175636423E1
4,138770327E0	-1,041000000E1	-5,000000000E0	9,100000000E-1	1,158430835E1
4,148570801E0	-1,022000000E1	-4,900000000E0	6,400000000E-1	1,135200423E1
4,158316066E0	-1,016000000E1	-5,120000000E0	5,000000000E-1	1,138815174E1
4,168892430E0	-9,560000000E0	-5,060000000E0	1,000000000E-1	1,081698664E1
4,179897596E0	-9,200000000E0	-5,380000000E0	-4,100000000E-1	1,066548171E1
4,189402824E0	-8,830000000E0	-5,460000000E0	-1,080000000E0	1,043776317E1
4,199911795E0	-8,160000000E0	-5,330000000E0	-1,450000000E0	9,853781000E0
4,209038907E0	-7,460000000E0	-5,580000000E0	-1,440000000E0	9,426643093E0
4,219194007E0	-6,840000000E0	-5,740000000E0	-2,080000000E0	9,168402260E0
4,230001522E0	-6,280000000E0	-5,770000000E0	-2,270000000E0	8,825202547E0
4,238697467E0	-5,770000000E0	-5,630000000E0	-2,690000000E0	8,498582235E0
4,249380993E0	-4,690000000E0	-5,870000000E0	-2,570000000E0	7,940900453E0
4,257927291E0	-4,010000000E0	-5,810000000E0	-2,550000000E0	7,505911004E0
4,269302341E0	-3,280000000E0	-5,760000000E0	-2,340000000E0	7,029338518E0
4,279208350E0	-2,590000000E0	-5,880000000E0	-2,010000000E0	6,732206176E0
4,288935563E0	-1,690000000E0	-5,860000000E0	-1,940000000E0	6,399945312E0
4,299596897E0	-7,700000000E-1	-5,810000000E0	-1,570000000E0	6,067445921E0
4,309666793E0	-4,000000000E-2	-6,060000000E0	-1,160000000E0	6,170153969E0
4,320359340E0	7,700000000E-1	-5,870000000E0	-5,000000000E-1	5,941363480E0
4,329113613E0	1,410000000E0	-5,980000000E0	4,000000000E-2	6,144111002E0
4,339301989E0	2,210000000E0	-6,100000000E0	8,600000000E-1	6,544745984E0
4,349476315E0	2,870000000E0	-6,110000000E0	1,160000000E0	6,849423333E0
4,360772657E0	3,740000000E0	-6,020000000E0	1,760000000E0	7,302437949E0
4,369391474E0	4,560000000E0	-6,070000000E0	2,130000000E0	7,885137919E0
4,379249933E0	4,850000000E0	-5,810000000E0	2,070000000E0	7,846241138E0
4,389643151E0	5,710000000E0	-5,850000000E0	2,390000000E0	8,516965422E0
4,399795392E0	6,290000000E0	-5,980000000E0	2,630000000E0	9,068704428E0
4,408517875E0	6,590000000E0	-5,640000000E0	2,380000000E0	8,994559467E0
4,418797561E0	7,120000000E0	-5,660000000E0	2,300000000E0	9,381897463E0
4,427964151E0	7,360000000E0	-5,610000000E0	2,410000000E0	9,562938879E0
4,437050799E0	7,840000000E0	-5,580000000E0	2,110000000E0	9,851603930E0
4,448186871E0	8,190000000E0	-5,240000000E0	1,440000000E0	9,828901261E0
4,457280398E0	8,430000000E0	-4,850000000E0	1,060000000E0	9,783199886E0
4,467143270E0	8,540000000E0	-4,640000000E0	1,010000000E0	9,771453321E0
4,477894131E0	8,870000000E0	-4,260000000E0	3,600000000E-1	9,846527307E0
4,488516077E0	8,940000000E0	-3,710000000E0	-1,400000000E-1	9,680253096E0
4,498676454E0	8,890000000E0	-3,180000000E0	-3,000000000E-1	9,446401431E0
4,509597591E0	8,940000000E0	-2,490000000E0	-6,300000000E-1	9,301645016E0
4,519495040E0	8,750000000E0	-1,980000000E0	-6,700000000E-1	8,996210313E0
4,529856196E0	8,910000000E0	-1,250000000E0	-1,240000000E0	9,082301470E0
4,540812946E0	8,680000000E0	-4,700000000E-1	-9,300000000E-1	8,742322346E0
4,551347221E0	8,610000000E0	6,500000000E-1	-1,010000000E0	8,693371038E0
4,561772706E0	8,220000000E0	1,190000000E0	-9,600000000E-1	8,360986784E0
4,571491092E0	8,270000000E0	2,050000000E0	-6,200000000E-1	8,542821548E0
4,581666062E0	7,740000000E0	2,950000000E0	-6,000000000E-1	8,304823899E0
4,591354310E0	7,660000000E0	3,630000000E0	-2,600000000E-1	8,480571915E0
4,602087187E0	7,250000000E0	4,510000000E0	4,000000000E-2	8,538395634E0
4,611728478E0	7,030000000E0	4,870000000E0	6,000000000E-1	8,573085792E0
4,621628341E0	6,970000000E0	5,380000000E0	8,500000000E-1	8,845778654E0
4,632394712E0	6,440000000E0	5,890000000E0	8,100000000E-1	8,764804618E0
4,642405680E0	6,290000000E0	6,370000000E0	9,500000000E-1	9,002416342E0
4,651919777E0	5,970000000E0	6,550000000E0	1,200000000E0	8,943343894E0
4,662900234E0	5,920000000E0	6,780000000E0	9,400000000E-1	9,049773478E0
4,672543122E0	5,400000000E0	6,900000000E0	7,700000000E-1	8,795618227E0
4,683577309E0	5,220000000E0	6,700000000E0	8,000000000E-1	8,531025730E0
4,694433031E0	5,140000000E0	6,630000000E0	2,500000000E-1	8,392794529E0
4,704274897E0	4,860000000E0	6,130000000E0	-1,200000000E-1	7,823739515E0
4,714913570E0	4,630000000E0	5,930000000E0	-5,300000000E-1	7,542062052E0
4,723516739E0	4,540000000E0	5,680000000E0	-1,180000000E0	7,366573152E0
4,733186134E0	4,000000000E0	5,210000000E0	-1,410000000E0	6,718050312E0
4,744267135E0	4,000000000E0	4,470000000E0	-1,650000000E0	6,221205671E0
4,754505753E0	3,830000000E0	4,010000000E0	-2,060000000E0	5,915454336E0
4,764679231E0	3,630000000E0	3,120000000E0	-2,200000000E0	5,267950266E0
4,775173447E0	3,420000000E0	2,490000000E0	-2,660000000E0	4,997209221E0
4,785706462E0	2,990000000E0	1,900000000E0	-2,630000000E0	4,412142337E0
4,795957257E0	2,790000000E0	1,320000000E0	-2,680000000E0	4,087652138E0
4,805719145E0	2,830000000E0	8,800000000E-1	-2,540000000E0	3,903191002E0
4,814769596E0	2,580000000E0	2,700000000E-1	-2,340000000E0	3,493551202E0
4,824147522E0	2,240000000E0	-3,100000000E-1	-1,950000000E0	2,986000670E0
4,833526289E0	1,940000000E0	-4,900000000E-1	-1,560000000E0	2,537183478E0
4,843318523E0	1,870000000E0	-1,020000000E0	-9,300000000E-1	2,324263324E0
4,854815700E0	1,410000000E0	-1,140000000E0	-3,300000000E-1	1,842986706E0
4,864373356E0	1,370000000E0	-1,620000000E0	3,800000000E-1	2,155388596E0
4,874215493E0	9,200000000E-1	-1,780000000E0	9,200000000E-1	2,204812917E0
4,883830376E0	7,700000000E-1	-1,980000000E0	1,290000000E0	2,485437587E0
4,894074659E0	1,600000000E-1	-2,030000000E0	1,810000000E0	2,724444898E0
4,905418355E0	-1,200000000E-1	-2,010000000E0	2,130000000E0	2,931109005E0
4,916585574E0	-7,100000000E-1	-2,190000000E0	2,340000000E0	3,282651367E0
4,926216990E0	-8,800000000E-1	-2,310000000E0	2,580000000E0	3,573079904E0
4,935517693E0	-1,370000000E0	-2,170000000E0	2,680000000E0	3,710552520E0
4,946670889E0	-2,010000000E0	-2,170000000E0	2,760000000E0	4,045565473E0
4,956652389E0	-2,240000000E0	-2,450000000E0	2,520000000E0	4,167793181E0
4,967209013E0	-2,880000000E0	-2,410000000E0	1,860000000E0	4,190715929E0
4,975928887E0	-3,450000000E0	-2,600000000E0	1,850000000E0	4,699468055E0
4,987028560E0	-3,860000000E0	-2,710000000E0	1,140000000E0	4,852143856E0
4,996467456E0	-4,540000000E0	-2,660000000E0	1,010000000E0	5,357919372E0
5,006451036E0	-4,890000000E0	-2,780000000E0	6,900000000E-1	5,667150960E0
5,015545100E0	-5,610000000E0	-2,660000000E0	2,400000000E-1	6,213316345E0
5,025305827E0	-5,900000000E0	-3,050000000E0	-4,200000000E-1	6,654990609E0
5,036289974E0	-6,820000000E0	-2,940000000E0	-6,200000000E-1	7,452543190E0
5,047272712E0	-7,160000000E0	-3,020000000E0	-1,000000000E0	7,834921825E0
5,057193728E0	-7,820000000E0	-3,240000000E0	-9,200000000E-1	8,514481781E0
5,067997460E0	-8,300000000E0	-3,330000000E0	-9,600000000E-1	8,994470524E0
5,077871661E0	-8,680000000E0	-3,530000000E0	-9,200000000E-1	9,415396965E0
5,087491730E0	-9,290000000E0	-3,640000000E0	-1,010000000E0	1,002864896E1
5,097629397E0	-9,630000000E0	-3,820000000E0	-7,100000000E-1	1,038428621E1
5,106733419E0	-9,990000000E0	-3,630000000E0	-6,900000000E-1	1,065143652E1
5,116183104E0	-1,007000000E1	-4,050000000E0	-7,000000000E-2	1,085413746E1
5,126802690E0	-1,053000000E1	-4,140000000E0	2,500000000E-1	1,131737602E1
5,137614232E0	-1,066000000E1	-4,060000000E0	1,100000000E-1	1,140751068E1
5,146284356E0	-1,086000000E1	-4,250000000E0	6,000000000E-1	1,167741838E1
5,156982835E0	-1,100000000E1	-4,360000000E0	9,200000000E-1	1,186827704E1
5,167935124E0	-1,080000000E1	-4,560000000E0	8,500000000E-1	1,175398230E1
5,177770705E0	-1,092000000E1	-4,720000000E0	8,300000000E-1	1,192533857E1
5,186458067E0	-1,080000000E1	-4,600000000E0	8,100000000E-1	1,176673702E1
5,197006807E0	-1,063000000E1	-4,950000000E0	1,070000000E0	1,177473142E1
5,206245298E0	-1,039000000E1	-4,980000000E0	5,700000000E-1	1,153591782E1
5,216675370E0	-1,031000000E1	-4,930000000E0	4,900000000E-1	1,143857946E1
5,226305237E0	-1,006000000E1	-5,190000000E0	3,800000000E-1	1,132625710E1
5,236716728E0	-9,510000000E0	-5,060000000E0	-3,800000000E-1	1,077905840E1
5,245991132E0	-9,200000000E0	-5,420000000E0	-4,400000000E-1	1,068690788E1
5,255920743E0	-8,760000000E0	-5,380000000E0	-1,000000000E0	1,032869789E1
5,265994768E0	-7,890000000E0	-5,460000000E0	-1,450000000E0	9,703927040E0
5,276387807E0	-7,360000000E0	-5,550000000E0	-1,800000000E0	9,392129684E0
5,285497311E0	-6,850000000E0	-5,520000000E0	-2,180000000E0	9,063404438E0
5,296883464E0	-6,170000000E0	-5,850000000E0	-2,220000000E0	8,787479730E0
5,306250878E0	-5,280000000E0	-5,730000000E0	-2,470000000E0	8,173873011E0
5,315668939E0	-4,650000000E0	-5,700000000E0	-2,670000000E0	7,825688468E0
5,324937876E0	-4,060000000E0	-6,000000000E0	-2,770000000E0	7,756062145E0
5,333640305E0	-3,100000000E0	-5,870000000E0	-2,460000000E0	7,079442068E0
5,343409073E0	-2,330000000E0	-5,940000000E0	-1,990000000E0	6,683756429E0
5,354224582E0	-1,460000000E0	-5,980000000E0	-1,680000000E0	6,380783651E0
5,364853283E0	-6,400000000E-1	-5,960000000E0	-1,640000000E0	6,214563541E0
5,373940000E0	-1,000000000E-2	-5,940000000E0	-1,050000000E0	6,032097479E0
5,382850796E0	6,200000000E-1	-5,930000000E0	-5,200000000E-1	5,984956140E0
5,392315080E0	1,480000000E0	-5,860000000E0	-3,000000000E-2	6,044079748E0
5,403119845E0	2,130000000E0	-5,940000000E0	4,100000000E-1	6,323654007E0
5,413084080E0	3,030000000E0	-5,810000000E0	9,700000000E-1	6,624039553E0
5,424353632E0	3,630000000E0	-5,910000000E0	1,670000000E0	7,133996075E0
5,434822784E0	4,310000000E0	-6,020000000E0	2,170000000E0	7,715270572E0
5,445185504E0	5,200000000E0	-6,030000000E0	2,460000000E0	8,333816653E0
5,455988577E0	5,700000000E0	-6,010000000E0	2,640000000E0	8,693658608E0
5,466739352E0	6,400000000E0	-5,890000000E0	2,700000000E0	9,107255349E0
5,476270866E0	6,890000000E0	-5,880000000E0	2,320000000E0	9,350342240E0
5,485541892E0	7,310000000E0	-5,600000000E0	2,290000000E0	9,488951470E0
5,495354756E0	7,620000000E0	-5,480000000E0	2,120000000E0	9,622328201E0
5,505322497E0	8,030000000E0	-5,340000000E0	1,760000000E0	9,802759815E0
5,514247666E0	8,220000000E0	-5,230000000E0	1,500000000E0	9,857550406E0
5,524071662E0	8,550000000E0	-4,930000000E0	1,100000000E0	9,930629386E0
5,534491132E0	8,740000000E0	-4,650000000E0	6,200000000E-1	9,919400183E0
5,543398276E0	8,560000000E0	-4,050000000E0	8,000000000E-2	9,470084477E0
5,552312389E0	8,730000000E0	-3,950000000E0	1,500000000E-1	9,583209275E0
5,561333553E0	8,820000000E0	-3,360000000E0	-1,200000000E-1	9,439088939E0
5,570683548E0	8,790000000E0	-2,720000000E0	-5,800000000E-1	9,219484801E0
5,582068675E0	8,730000000E0	-2,110000000E0	-1,000000000E0	9,036868927E0
5,590646049E0	8,920000000E0	-1,270000000E0	-1,040000000E0	9,069779490E0
5,599697267E0	8,530000000E0	-7,300000000E-1	-8,600000000E-1	8,604266384E0
5,608692410E0	8,470000000E0	-7,000000000E-2	-1,000000000E0	8,529114843E0
5,618615454E0	8,520000000E0	6,000000000E-1	-8,600000000E-1	8,584287973E0
5,627160673E0	8,180000000E0	1,360000000E0	-7,100000000E-1	8,322625788E0
5,637035192E0	7,990000000E0	2,250000000E0	-3,600000000E-1	8,308561849E0
5,646023960E0	8,040000000E0	2,830000000E0	-2,800000000E-1	8,528124061E0
5,655332880E0	7,760000000E0	3,430000000E0	-2,900000000E-1	8,489204910E0
5,666210202E0	7,380000000E0	4,370000000E0	2,300000000E-1	8,579871794E0
5,675262404E0	7,040000000E0	4,840000000E0	6,900000000E-1	8,571073445E0
5,685613790E0	6,810000000E0	5,610000000E0	5,400000000E-1	8,839671940E0
5,695332727E0	6,810000000E0	6,010000000E0	6,900000000E-1	9,108913217E0
5,705085514E0	6,480000000E0	6,390000000E0	8,000000000E-1	9,135781302E0
5,716036050E0	5,940000000E0	6,750000000E0	8,500000000E-1	9,031533646E0
5,725018795E0	5,930000000E0	6,870000000E0	8,500000000E-1	9,115058969E0
5,736290226E0	5,530000000E0	6,770000000E0	1,000000000E0	8,798511238E0
5,747470698E0	5,370000000E0	6,800000000E0	6,500000000E-1	8,689039072E0
5,757975664E0	4,980000000E0	6,510000000E0	3,900000000E-1	8,205644399E0
5,766624006E0	4,720000000E0	6,270000000E0	-2,000000000E-2	7,848037971E0
5,777113932E0	4,440000000E0	5,910000000E0	-5,500000000E-1	7,412435497E0
5,787414975E0	4,320000000E0	5,440000000E0	-7,700000000E-1	6,989198810E0
5,798231592E0	4,290000000E0	4,950000000E0	-1,540000000E0	6,728907787E0
5,807373087E0	4,120000000E0	4,450000000E0	-1,800000000E0	6,325891242E0
5,818733155E0	3,820000000E0	3,940000000E0	-2,160000000E0	5,897592729E0
5,829891747E0	3,630000000E0	3,110000000E0	-2,310000000E0	5,308964117E0
5,838734818E0	3,260000000E0	2,490000000E0	-2,420000000E0	4,762782800E0
5,848180424E0	3,130000000E0	2,040000000E0	-2,580000000E0	4,540363422E0
5,856777756E0	3,160000000E0	1,450000000E0	-2,540000000E0	4,305775192E0
5,867770598E0	2,960000000E0	1,000000000E0	-2,550000000E0	4,032877385E0
5,879015882E0	2,540000000E0	2,400000000E-1	-2,110000000E0	3,310785405E0
5,890485310E0	2,400000000E0	-1,900000000E-1	-1,580000000E0	2,879670120E0
5,900821085E0	2,210000000E0	-7,500000000E-1	-1,320000000E0	2,681231061E0
5,911319042E0	1,960000000E0	-1,020000000E0	-6,300000000E-1	2,297585689E0
5,921854258E0	1,430000000E0	-1,200000000E0	-1,800000000E-1	1,875446613E0
5,932064703E0	1,260000000E0	-1,640000000E0	3,900000000E-1	2,104590221E0
5,943421972E0	8,100000000E-1	-1,760000000E0	1,040000000E0	2,198931559E0
5,953745556E0	4,900000000E-1	-1,930000000E0	1,310000000E0	2,383505821E0
5,963252734E0	1,500000000E-1	-2,150000000E0	1,740000000E0	2,769945848E0
5,973291366E0	-3,000000000E-1	-2,230000000E0	2,060000000E0	3,050655667E0
5,981847354E0	-7,300000000E-1	-1,990000000E0	2,450000000E0	3,239675910E0
5,992519733E0	-9,200000000E-1	-2,210000000E0	2,670000000E0	3,586000558E0
6,003101497E0	-1,420000000E0	-2,140000000E0	2,710000000E0	3,733644332E0
6,012864650E0	-1,830000000E0	-2,290000000E0	2,380000000E0	3,775897244E0
6,023919093E0	-2,610000000E0	-2,210000000E0	2,240000000E0	4,088251460E0
6,034685671E0	-3,130000000E0	-2,510000000E0	1,840000000E0	4,413909831E0
6,044195725E0	-3,500000000E0	-2,480000000E0	1,760000000E0	4,636593577E0
6,052928219E0	-3,840000000E0	-2,520000000E0	1,300000000E0	4,773468341E0
6,061824888E0	-4,480000000E0	-2,510000000E0	8,500000000E-1	5,205093659E0
6,070877705E0	-5,070000000E0	-2,860000000E0	4,400000000E-1	5,837645073E0
6,080289459E0	-5,450000000E0	-2,830000000E0	4,100000000E-1	6,154632402E0
6,090132006E0	-5,860000000E0	-2,880000000E0	-2,000000000E-1	6,532533965E0
6,101415996E0	-6,490000000E0	-2,950000000E0	-3,100000000E-1	7,135734020E0
6,110751250E0	-6,970000000E0	-3,200000000E0	-8,800000000E-1	7,719799220E0
6,121947007E0	-7,710000000E0	-3,180000000E0	-1,130000000E0	8,416258076E0
6,132488393E0	-8,280000000E0	-3,240000000E0	-9,600000000E-1	8,943019624E0
6,143548872E0	-8,570000000E0	-3,350000000E0	-8,400000000E-1	9,239751079E0
6,153258632E0	-9,020000000E0	-3,640000000E0	-1,110000000E0	9,789897854E0
6,161768462E0	-9,330000000E0	-3,660000000E0	-6,100000000E-1	1,004074698E1
6,172629364E0	-9,880000000E0	-3,840000000E0	-5,100000000E-1	1,061226178E1
6,181865792E0	-1,021000000E1	-3,920000000E0	-1,000000000E-1	1,093711571E1
6,190793233E0	-1,047000000E1	-4,030000000E0	1,800000000E-1	1,122025846E1
6,201691707E0	-1,049000000E1	-3,960000000E0	2,400000000E-1	1,121513709E1
6,212250693E0	-1,064000000E1	-4,410000000E0	7,800000000E-1	1,154409373E1
6,221387939E0	-1,094000000E1	-4,180000000E0	6,100000000E-1	1,172723753E1
6,230690684E0	-1,081000000E1	-4,610000000E0	9,100000000E-1	1,178712433E1
6,242008344E0	-1,098000000E1	-4,720000000E0	1,020000000E0	1,199496561E1
6,251313958E0	-1,089000000E1	-4,780000000E0	9,400000000E-1	1,192996647E1
6,261921175E0	-1,070000000E1	-4,870000000E0	9,800000000E-1	1,179691909E1
6,270809835E0	-1,065000000E1	-4,770000000E0	9,800000000E-1	1,171049956E1
6,281754943E0	-1,036000000E1	-4,880000000E0	4,000000000E-1	1,145879575E1
6,290607713E0	-1,008000000E1	-4,940000000E0	3,100000000E-1	1,122969724E1
6,300655836E0	-9,710000000E0	-5,230000000E0	-3,000000000E-2	1,102895734E1
6,309261489E0	-9,250000000E0	-5,440000000E0	-5,400000000E-1	1,074465914E1
6,319411725E0	-8,910000000E0	-5,310000000E0	-7,500000000E-1	1,039936056E1
6,330451590E0	-8,080000000E0	-5,310000000E0	-1,410000000E0	9,770905792E0
6,339204785E0	-7,780000000E0	-5,660000000E0	-1,600000000E0	9,753153336E0
6,348527555E0	-7,110000000E0	-5,470000000E0	-1,940000000E0	9,178049902E0
6,359321634E0	-6,320000000E0	-5,840000000E0	-2,160000000E0	8,872068530E0
6,369645929E0	-5,770000000E0	-5,650000000E0	-2,280000000E0	8,391293107E0
6,379084320E0	-4,990000000E0	-5,780000000E0	-2,390000000E0	8,001287396E0
6,389471031E0	-4,140000000E0	-5,690000000E0	-2,600000000E0	7,501713138E0
6,399335162E0	-3,380000000E0	-5,740000000E0	-2,610000000E0	7,154306395E0
6,410422231E0	-2,380000000E0	-6,080000000E0	-2,380000000E0	6,949474800E0
6,419801051E0	-1,670000000E0	-5,950000000E0	-1,810000000E0	6,439526380E0
6,430574243E0	-1,030000000E0	-6,060000000E0	-1,380000000E0	6,299912698E0
6,440981265E0	5,000000000E-2	-6,010000000E0	-8,600000000E-1	6,071424874E0
6,451702551E0	8,000000000E-1	-6,150000000E0	-2,800000000E-1	6,208131764E0
6,461337336E0	1,590000000E0	-6,050000000E0	1,200000000E-1	6,256596519E0
6,472012099E0	2,220000000E0	-6,030000000E0	8,600000000E-1	6,482969998E0
6,482607377E0	3,100000000E0	-6,160000000E0	1,290000000E0	7,015675306E0
6,492269844E0	3,850000000E0	-5,970000000E0	1,720000000E0	7,309021822E0
6,500849201E0	4,460000000E0	-5,800000000E0	2,160000000E0	7,628708934E0
6,512237941E0	5,170000000E0	-6,060000000E0	2,410000000E0	8,322295356E0
6,522878742E0	5,590000000E0	-5,710000000E0	2,670000000E0	8,425028190E0
6,531992958E0	6,290000000E0	-5,830000000E0	2,830000000E0	9,031162716E0
6,542685379E0	6,730000000E0	-5,860000000E0	2,530000000E0	9,275419128E0
6,552021429E0	7,180000000E0	-5,520000000E0	2,590000000E0	9,419708063E0
6,561929286E0	7,630000000E0	-5,580000000E0	2,150000000E0	9,694111615E0
6,573008950E0	7,850000000E0	-5,420000000E0	1,900000000E0	9,726710646E0
6,582853166E0	8,320000000E0	-5,230000000E0	1,730000000E0	9,978386643E0
6,592217186E0	8,530000000E0	-4,800000000E0	1,400000000E0	9,887411188E0
6,601633659E0	8,680000000E0	-4,750000000E0	9,900000000E-1	9,944093724E0
6,610364711E0	8,660000000E0	-4,370000000E0	5,300000000E-1	9,714597264E0
6,619523228E0	8,810000000E0	-3,930000000E0	2,000000000E-1	9,648885946E0
6,628836547E0	8,740000000E0	-3,520000000E0	-1,200000000E-1	9,422971930E0
6,637855454E0	8,970000000E0	-2,730000000E0	-5,300000000E-1	9,391203331E0
6,646544651E0	9,000000000E0	-2,300000000E0	-9,300000000E-1	9,335678872E0
6,656442019E0	8,690000000E0	-1,590000000E0	-1,210000000E0	8,916742679E0
6,665585207E0	8,820000000E0	-8,200000000E-1	-9,200000000E-1	8,905683578E0
6,676301519E0	8,670000000E0	-1,500000000E-1	-9,300000000E-1	8,721026316E0
6,687569102E0	8,270000000E0	6,600000000E-1	-8,400000000E-1	8,338710932E0
6,696888056E0	8,410000000E0	1,480000000E0	-7,700000000E-1	8,573878935E0
6,707104801E0	8,050000000E0	2,270000000E0	-5,000000000E-1	8,378866272E0
6,717124978E0	7,760000000E0	2,960000000E0	-2,000000000E-1	8,307779487E0
6,725850303E0	7,470000000E0	3,570000000E0	-5,000000000E-2	8,279390074E0
6,734724927E0	7,520000000E0	4,220000000E0	2,800000000E-1	8,627699578E0
6,745879265E0	7,080000000E0	5,050000000E0	3,700000000E-1	8,704355232E0
6,755801721E0	6,890000000E0	5,390000000E0	7,600000000E-1	8,780763065E0
6,766715551E0	6,490000000E0	6,180000000E0	1,000000000E0	9,017344398E0
6,775415293E0	6,410000000E0	6,230000000E0	1,070000000E0	9,002549639E0
6,785699732E0	6,060000000E0	6,530000000E0	9,500000000E-1	8,959185231E0
6,796795668E0	5,920000000E0	6,650000000E0	8,200000000E-1	8,940989878E0
6,807896867E0	5,590000000E0	6,800000000E0	9,100000000E-1	8,849644061E0
6,816414034E0	5,400000000E0	6,740000000E0	4,400000000E-1	8,647612387E0
6,826479194E0	5,000000000E0	6,700000000E0	4,800000000E-1	8,373792450E0
6,836086208E0	4,710000000E0	6,540000000E0	-1,700000000E-1	8,061302624E0
6,846866335E0	4,760000000E0	5,950000000E0	-3,100000000E-1	7,626021243E0
6,855585992E0	4,590000000E0	5,790000000E0	-8,900000000E-1	7,442062886E0
6,864880771E0	4,300000000E0	5,170000000E0	-1,010000000E0	6,799926470E0
6,875818700E0	4,170000000E0	4,630000000E0	-1,780000000E0	6,480293203E0
6,885727368E0	3,900000000E0	3,970000000E0	-2,170000000E0	5,973257068E0
6,895586819E0	3,680000000E0	3,650000000E0	-2,190000000E0	5,626810820E0
6,906992495E0	3,390000000E0	2,770000000E0	-2,370000000E0	4,978142224E0
6,916452167E0	3,190000000E0	2,310000000E0	-2,680000000E0	4,763884969E0
6,925077333E0	3,070000000E0	1,550000000E0	-2,620000000E0	4,323401439E0
6,934753936E0	2,780000000E0	1,230000000E0	-2,430000000E0	3,891811917E0
6,943714057E0	2,670000000E0	5,700000000E-1	-2,440000000E0	3,661611667E0
6,952459732E0	2,510000000E0	2,100000000E-1	-2,150000000E0	3,311600821E0
6,962663313E0	2,120000000E0	-1,900000000E-1	-1,680000000E0	2,711623130E0
6,974024040E0	1,970000000E0	-8,200000000E-1	-1,300000000E0	2,498659641E0
6,984262263E0	1,680000000E0	-1,050000000E0	-8,500000000E-1	2,155782920E0
6,994703606E0	1,520000000E0	-1,240000000E0	9,000000000E-2	1,963695496E0
7,004174493E0	1,300000000E0	-1,690000000E0	2,200000000E-1	2,143478481E0
7,014387862E0	9,200000000E-1	-1,770000000E0	1,190000000E0	2,322800034E0
7,025144595E0	5,800000000E-1	-2,010000000E0	1,640000000E0	2,658213686E0
7,035412450E0	2,000000000E-1	-2,120000000E0	1,870000000E0	2,833954834E0
7,046320785E0	-3,400000000E-1	-2,070000000E0	2,430000000E0	3,210202486E0
7,056472197E0	-7,100000000E-1	-2,130000000E0	2,260000000E0	3,185686739E0
7,065566629E0	-9,300000000E-1	-2,110000000E0	2,620000000E0	3,490186241E0
7,075814808E0	-1,350000000E0	-2,080000000E0	2,540000000E0	3,549718299E0
7,085787615E0	-2,090000000E0	-2,190000000E0	2,420000000E0	3,875641882E0
7,094785422E0	-2,580000000E0	-2,380000000E0	2,560000000E0	4,344467746E0
7,105142919E0	-2,770000000E0	-2,390000000E0	1,850000000E0	4,099695111E0
7,116093801E0	-3,370000000E0	-2,400000000E0	1,890000000E0	4,548516242E0
7,124999064E0	-3,920000000E0	-2,420000000E0	1,150000000E0	4,748189128E0
7,135133902E0	-4,390000000E0	-2,550000000E0	1,030000000E0	5,180299219E0
7,145834963E0	-5,050000000E0	-2,710000000E0	3,800000000E-1	5,743779244E0
7,155544016E0	-5,460000000E0	-2,930000000E0	1,100000000E-1	6,197467225E0
7,164854155E0	-6,190000000E0	-2,760000000E0	-4,000000000E-2	6,777558557E0
7,174470996E0	-6,640000000E0	-3,060000000E0	-4,100000000E-1	7,322656622E0
7,184596091E0	-7,080000000E0	-3,120000000E0	-1,010000000E0	7,802621354E0
7,195156073E0	-7,780000000E0	-3,060000000E0	-1,080000000E0	8,429614463E0
7,205333598E0	-8,090000000E0	-3,410000000E0	-1,070000000E0	8,844269331E0
7,214154673E0	-8,660000000E0	-3,260000000E0	-9,500000000E-1	9,301919157E0
7,225108332E0	-8,970000000E0	-3,620000000E0	-1,210000000E0	9,748302416E0
7,236379912E0	-9,380000000E0	-3,800000000E0	-6,000000000E-1	1,013826415E1
7,245183790E0	-9,830000000E0	-3,750000000E0	-4,100000000E-1	1,052898381E1
7,254432349E0	-9,920000000E0	-3,760000000E0	-1,100000000E-1	1,060924597E1
7,263453392E0	-1,030000000E1	-4,000000000E0	-2,300000000E-1	1,105182790E1
7,274500858E0	-1,050000000E1	-3,980000000E0	1,000000000E-1	1,122944344E1
7,285731694E0	-1,095000000E1	-4,260000000E0	7,100000000E-1	1,177090481E1
7,294364515E0	-1,102000000E1	-4,220000000E0	7,500000000E-1	1,182418285E1
7,303861773E0	-1,086000000E1	-4,570000000E0	7,900000000E-1	1,180883568E1
7,312939257E0	-1,079000000E1	-4,610000000E0	7,800000000E-1	1,175944727E1
7,322847855E0	-1,085000000E1	-4,780000000E0	9,300000000E-1	1,189267842E1
7,334112627E0	-1,062000000E1	-4,690000000E0	1,110000000E0	1,166244400E1
7,342823146E0	-1,077000000E1	-4,870000000E0	1,020000000E0	1,186381895E1
7,351836984E0	-1,027000000E1	-4,900000000E0	6,500000000E-1	1,139760501E1
7,361798071E0	-9,990000000E0	-5,150000000E0	6,500000000E-1	1,125811263E1
7,371870176E0	-9,730000000E0	-5,070000000E0	1,100000000E-1	1,097223314E1
7,382606679E0	-9,360000000E0	-5,080000000E0	-3,100000000E-1	1,065420574E1
7,392419737E0	-8,810000000E0	-5,490000000E0	-7,800000000E-1	1,040983189E1
7,401343148E0	-8,510000000E0	-5,480000000E0	-1,150000000E0	1,018690336E1
7,410903983E0	-7,830000000E0	-5,360000000E0	-1,560000000E0	9,616241470E0
7,422350263E0	-7,130000000E0	-5,450000000E0	-1,750000000E0	9,143407461E0
7,433102429E0	-6,490000000E0	-5,520000000E0	-2,270000000E0	8,817221785E0
7,441951462E0	-5,980000000E0	-5,800000000E0	-2,570000000E0	8,718101858E0
7,452876090E0	-5,280000000E0	-5,750000000E0	-2,620000000E0	8,234397367E0
7,462308869E0	-4,510000000E0	-5,960000000E0	-2,400000000E0	7,849949044E0
7,473153059E0	-3,460000000E0	-5,890000000E0	-2,460000000E0	7,260530284E0
7,481691223E0	-3,010000000E0	-5,870000000E0	-2,570000000E0	7,079682196E0
7,492805033E0	-2,180000000E0	-6,020000000E0	-2,100000000E0	6,738159986E0
7,501791964E0	-1,400000000E0	-5,990000000E0	-1,750000000E0	6,395514053E0
7,511659216E0	-5,200000000E-1	-6,030000000E0	-1,540000000E0	6,245230180E0
7,522144483E0	3,300000000E-1	-6,140000000E0	-5,400000000E-1	6,172527845E0
7,532168092E0	1,210000000E0	-6,150000000E0	-3,000000000E-2	6,267974154E0
7,541164285E0	1,890000000E0	-5,900000000E0	5,000000000E-2	6,195530647E0
7,550081641E0	2,590000000E0	-6,170000000E0	7,600000000E-1	6,734582392E0
7,559435244E0	3,230000000E0	-5,810000000E0	1,110000000E0	6,739517787E0
7,568092419E0	3,680000000E0	-5,830000000E0	1,450000000E0	7,045125975E0
7,577242053E0	4,180000000E0	-5,770000000E0	1,850000000E0	7,361236309E0
7,586132368E0	5,020000000E0	-5,820000000E0	2,020000000E0	7,946898766E0
7,596026759E0	5,350000000E0	-6,060000000E0	2,560000000E0	8,479369080E0
7,605596289E0	6,020000000E0	-5,980000000E0	2,520000000E0	8,851621320E0
7,615856786E0	6,410000000E0	-5,850000000E0	2,710000000E0	9,091463029E0
7,625199423E0	7,030000000E0	-5,840000000E0	2,690000000E0	9,526940747E0
7,633801156E0	7,180000000E0	-5,800000000E0	2,420000000E0	9,541949486E0
7,643294486E0	7,610000000E0	-5,380000000E0	2,070000000E0	9,546800511E0
7,654060028E0	7,880000000E0	-5,200000000E0	1,620000000E0	9,579081376E0
7,663327543E0	8,360000000E0	-5,030000000E0	1,530000000E0	9,875798702E0
7,673041188E0	8,490000000E0	-4,940000000E0	1,140000000E0	9,888543877E0
7,683806111E0	8,680000000E0	-4,350000000E0	7,400000000E-1	9,737171047E0
7,693526155E0	8,690000000E0	-3,950000000E0	2,000000000E-2	9,545627271E0
7,704687527E0	8,730000000E0	-3,580000000E0	-4,400000000E-1	9,445787421E0
7,715941733E0	9,000000000E0	-3,010000000E0	-3,800000000E-1	9,497604961E0
7,725373322E0	8,950000000E0	-2,420000000E0	-7,500000000E-1	9,301688019E0
7,736081213E0	8,890000000E0	-1,600000000E0	-1,190000000E0	9,110883601E0
7,745340564E0	8,900000000E0	-7,900000000E-1	-9,500000000E-1	8,985354751E0
7,754259134E0	8,640000000E0	-3,800000000E-1	-1,280000000E0	8,742562553E0
7,764072777E0	8,360000000E0	5,000000000E-1	-9,300000000E-1	8,426416795E0
7,774380194E0	8,340000000E0	1,270000000E0	-8,100000000E-1	8,474939528E0
7,785686967E0	8,010000000E0	2,340000000E0	-4,900000000E-1	8,359174600E0
7,794624672E0	7,890000000E0	2,760000000E0	-5,700000000E-1	8,378221768E0
7,805261760E0	7,630000000E0	3,700000000E0	1,300000000E-1	8,480790058E0
7,815188153E0	7,430000000E0	4,250000000E0	4,400000000E-1	8,570939272E0
7,824083281E0	7,330000000E0	4,920000000E0	7,000000000E-1	8,855806005E0
7,835501255E0	7,000000000E0	5,600000000E0	8,700000000E-1	9,006492103E0
7,846088562E0	6,590000000E0	6,090000000E0	8,300000000E-1	9,011387241E0
7,854975138E0	6,500000000E0	6,420000000E0	1,270000000E0	9,223844101E0
7,866192404E0	6,220000000E0	6,530000000E0	1,130000000E0	9,088795300E0
7,875001687E0	5,970000000E0	6,680000000E0	1,140000000E0	9,031218080E0
7,883779664E0	5,670000000E0	6,700000000E0	1,000000000E0	8,833962871E0
7,893274317E0	5,560000000E0	6,730000000E0	5,900000000E-1	8,749548560E0
7,904588195E0	5,150000000E0	6,550000000E0	6,000000000E-1	8,353741677E0
7,913187268E0	4,820000000E0	6,600000000E0	2,000000000E-1	8,175108562E0
7,924441890E0	4,620000000E0	6,010000000E0	-4,400000000E-1	7,593293093E0
7,934776725E0	4,540000000E0	5,660000000E0	-7,900000000E-1	7,298719066E0
7,943477880E0	4,260000000E0	5,480000000E0	-1,270000000E0	7,056266718E0
7,953683655E0	4,070000000E0	4,960000000E0	-1,540000000E0	6,598340701E0
7,963560027E0	3,870000000E0	4,480000000E0	-1,630000000E0	6,140374581E0
7,973751981E0	3,600000000E0	3,680000000E0	-2,250000000E0	5,618264857E0
7,984463591E0	3,360000000E0	2,920000000E0	-2,490000000E0	5,100598004E0
7,994999449E0	3,150000000E0	2,550000000E0	-2,430000000E0	4,725452359E0
8,006491131E0	3,140000000E0	1,680000000E0	-2,820000000E0	4,542510319E0
8,015461138E0	2,850000000E0	1,340000000E0	-2,730000000E0	4,167853164E0
8,026399705E0	2,670000000E0	4,800000000E-1	-2,210000000E0	3,499057016E0
8,036132984E0	2,630000000E0	0,000000000E0	-2,240000000E0	3,454634568E0
8,046982906E0	2,290000000E0	-2,900000000E-1	-1,580000000E0	2,797248648E0
8,058158244E0	2,090000000E0	-7,000000000E-1	-9,700000000E-1	2,408111293E0
8,069634238E0	1,780000000E0	-1,120000000E0	-5,100000000E-1	2,164000924E0
8,078932364E0	1,590000000E0	-1,380000000E0	-2,500000000E-1	2,120141505E0
8,088791179E0	1,000000000E0	-1,570000000E0	3,400000000E-1	1,892220917E0
8,100119516E0	7,600000000E-1	-1,930000000E0	1,090000000E0	2,343202936E0
8,111456732E0	5,800000000E-1	-2,090000000E0	1,820000000E0	2,831413075E0
8,121075353E0	7,000000000E-2	-2,070000000E0	2,050000000E0	2,914155109E0
8,132395981E0	-2,000000000E-1	-2,070000000E0	2,410000000E0	3,183237346E0
8,142113655E0	-8,500000000E-1	-2,210000000E0	2,560000000E0	3,487147832E0
8,151737953E0	-1,310000000E0	-2,280000000E0	2,520000000E0	3,642101042E0
8,162507811E0	-1,490000000E0	-2,240000000E0	2,650000000E0	3,776267999E0
8,172421447E0	-2,120000000E0	-2,310000000E0	2,240000000E0	3,853323241E0
8,182266042E0	-2,560000000E0	-2,420000000E0	2,240000000E0	4,174637709E0
8,191924399E0	-2,890000000E0	-2,250000000E0	2,170000000E0	4,257170422E0
8,201722811E0	-3,640000000E0	-2,320000000E0	1,520000000E0	4,576286704E0
8,210642264E0	-3,850000000E0	-2,700000000E0	1,400000000E0	4,906373406E0
8,219325375E0	-4,510000000E0	-2,620000000E0	1,080000000E0	5,326434079E0
8,230087355E0	-5,130000000E0	-2,800000000E0	3,500000000E-1	5,854861228E0
8,240280855E0	-5,680000000E0	-2,850000000E0	2,900000000E-1	6,361524974E0
8,250796527E0	-6,140000000E0	-3,060000000E0	-4,000000000E-1	6,871913853E0
8,261703533E0	-6,730000000E0	-3,150000000E0	-3,800000000E-1	7,440416655E0
8,270893852E0	-7,050000000E0	-3,260000000E0	-9,000000000E-1	7,819213515E0
8,280095170E0	-7,800000000E0	-3,320000000E0	-9,200000000E-1	8,526945526E0
8,289428896E0	-8,250000000E0	-3,240000000E0	-8,300000000E-1	8,902190742E0
8,298840671E0	-8,640000000E0	-3,540000000E0	-9,000000000E-1	9,380362466E0
8,309622744E0	-8,950000000E0	-3,370000000E0	-9,900000000E-1	9,614546271E0
8,319245289E0	-9,270000000E0	-3,510000000E0	-9,900000000E-1	9,961581200E0
8,328714855E0	-9,720000000E0	-3,810000000E0	-5,900000000E-1	1,045670120E1
8,339123760E0	-1,000000000E1	-3,780000000E0	-3,400000000E-1	1,069598055E1
8,348183472E0	-1,025000000E1	-3,790000000E0	-3,500000000E-1	1,093385111E1
8,357002732E0	-1,068000000E1	-4,180000000E0	6,000000000E-2	1,146901914E1
8,367594132E0	-1,080000000E1	-4,150000000E0	6,200000000E-1	1,158649645E1
8,378363468E0	-1,068000000E1	-4,300000000E0	6,900000000E-1	1,153379816E1
8,387752561E0	-1,098000000E1	-4,470000000E0	7,100000000E-1	1,187625362E1
8,398160685E0	-1,079000000E1	-4,590000000E0	1,080000000E0	1,177533864E1
8,406762915E0	-1,092000000E1	-4,750000000E0	1,040000000E0	1,195368144E1
8,416475872E0	-1,093000000E1	-4,660000000E0	1,260000000E0	1,194856058E1
8,426709747E0	-1,086000000E1	-4,930000000E0	9,600000000E-1	1,196520372E1
8,435970002E0	-1,059000000E1	-4,950000000E0	5,600000000E-1	1,170317051E1
8,445514647E0	-1,031000000E1	-4,860000000E0	4,000000000E-1	1,140507343E1
8,455843296E0	-9,940000000E0	-5,170000000E0	8,000000000E-2	1,120441431E1
8,466112989E0	-9,550000000E0	-5,280000000E0	9,000000000E-2	1,091279066E1
8,475075561E0	-9,130000000E0	-5,140000000E0	-5,600000000E-1	1,049238295E1
8,485695307E0	-8,640000000E0	-5,350000000E0	-1,010000000E0	1,021235526E1
8,494435395E0	-8,340000000E0	-5,430000000E0	-1,060000000E0	1,000820164E1
8,505844569E0	-7,600000000E0	-5,640000000E0	-1,880000000E0	9,649041403E0
8,514951655E0	-6,790000000E0	-5,550000000E0	-1,980000000E0	8,990383752E0
8,524212299E0	-6,510000000E0	-5,710000000E0	-2,070000000E0	8,903319606E0
8,533313201E0	-5,640000000E0	-5,700000000E0	-2,270000000E0	8,333816653E0
8,544787698E0	-4,910000000E0	-5,820000000E0	-2,770000000E0	8,102678569E0
8,554147483E0	-4,140000000E0	-5,980000000E0	-2,620000000E0	7,730743819E0
8,564463359E0	-3,490000000E0	-5,740000000E0	-2,630000000E0	7,214194342E0
8,575935262E0	-2,590000000E0	-5,850000000E0	-2,160000000E0	6,752495835E0
8,587285465E0	-1,650000000E0	-5,790000000E0	-2,020000000E0	6,350354321E0
8,595912515E0	-8,300000000E-1	-6,040000000E0	-1,710000000E0	6,332029690E0
8,605976067E0	-2,500000000E-1	-6,060000000E0	-1,200000000E0	6,182725936E0
8,616279981E0	4,600000000E-1	-6,120000000E0	-7,500000000E-1	6,182920022E0
8,626887166E0	1,250000000E0	-6,070000000E0	1,100000000E-1	6,198346554E0
8,636394894E0	2,250000000E0	-6,060000000E0	4,000000000E-1	6,476580888E0
8,645878620E0	2,740000000E0	-6,100000000E0	9,500000000E-1	6,754265319E0
8,654391472E0	3,260000000E0	-6,060000000E0	1,290000000E0	7,001092772E0
8,662997182E0	4,000000000E0	-6,030000000E0	1,710000000E0	7,435388356E0
8,673147354E0	4,740000000E0	-5,810000000E0	2,030000000E0	7,768178680E0
8,681875015E0	5,180000000E0	-5,920000000E0	2,290000000E0	8,192856645E0
8,690982459E0	5,530000000E0	-5,760000000E0	2,630000000E0	8,406866241E0
8,700482274E0	6,120000000E0	-5,980000000E0	2,450000000E0	8,900410103E0
8,709193688E0	6,500000000E0	-5,890000000E0	2,700000000E0	9,177804748E0
8,717786268E0	6,800000000E0	-5,560000000E0	2,440000000E0	9,116315045E0
8,729067029E0	7,580000000E0	-5,760000000E0	2,110000000E0	9,751210181E0
8,738872655E0	7,740000000E0	-5,620000000E0	1,850000000E0	9,742407300E0
8,747987308E0	7,910000000E0	-5,290000000E0	1,940000000E0	9,711632201E0
8,758612664E0	8,440000000E0	-5,120000000E0	1,100000000E0	9,932673356E0
8,767141000E0	8,650000000E0	-4,900000000E0	8,700000000E-1	9,979448883E0
8,776376052E0	8,750000000E0	-4,430000000E0	7,800000000E-1	9,838485656E0
8,787758300E0	8,690000000E0	-3,950000000E0	-7,000000000E-2	9,545862978E0
8,798951371E0	8,740000000E0	-3,550000000E0	-4,100000000E-1	9,442361993E0
8,809359147E0	8,880000000E0	-2,840000000E0	-7,000000000E-1	9,349331527E0
8,818138755E0	8,890000000E0	-2,330000000E0	-6,300000000E-1	9,211834779E0
8,827592908E0	8,950000000E0	-1,570000000E0	-1,150000000E0	9,159142973E0
8,836176705E0	8,910000000E0	-1,240000000E0	-8,200000000E-1	9,033166665E0
8,845334278E0	8,790000000E0	-5,100000000E-1	-1,260000000E0	8,894481435E0
8,853910581E0	8,480000000E0	2,500000000E-1	-1,000000000E0	8,542417691E0
8,862789072E0	8,420000000E0	7,500000000E-1	-7,900000000E-1	8,490170787E0
8,873188715E0	8,080000000E0	1,830000000E0	-7,100000000E-1	8,315010523E0
8,881990044E0	8,040000000E0	2,540000000E0	-5,400000000E-1	8,448952598E0
8,890957333E0	7,690000000E0	2,980000000E0	-3,400000000E-1	8,254217104E0
8,902165757E0	7,450000000E0	3,920000000E0	-1,200000000E-1	8,419222054E0
8,911672114E0	7,220000000E0	4,360000000E0	5,200000000E-1	8,450349105E0
8,921171105E0	7,050000000E0	5,170000000E0	4,800000000E-1	8,755672447E0
8,929930723E0	6,830000000E0	5,380000000E0	8,000000000E-1	8,731168307E0
8,940818515E0	6,690000000E0	5,800000000E0	9,600000000E-1	8,906048506E0
8,951347647E0	6,200000000E0	6,190000000E0	1,270000000E0	8,852626729E0
8,961489045E0	5,960000000E0	6,590000000E0	9,400000000E-1	8,934948237E0
8,971842784E0	5,890000000E0	6,610000000E0	8,400000000E-1	8,893244627E0
8,980643926E0	5,680000000E0	7,000000000E0	1,100000000E0	9,081431605E0
8,989924844E0	5,470000000E0	6,850000000E0	7,100000000E-1	8,794742748E0
9,000175768E0	5,230000000E0	6,710000000E0	5,000000000E-1	8,522147617E0
9,011532464E0	4,960000000E0	6,480000000E0	1,000000000E-1	8,161004840E0
9,022483860E0	4,680000000E0	6,070000000E0	-2,400000000E-1	7,668435303E0
9,032906039E0	4,530000000E0	5,820000000E0	-6,400000000E-1	7,402898081E0
9,042962495E0	4,090000000E0	5,300000000E0	-1,120000000E0	6,787672650E0
9,051507891E0	3,970000000E0	4,770000000E0	-1,810000000E0	6,464510809E0
9,062680040E0	3,940000000E0	4,110000000E0	-1,780000000E0	5,965240984E0
9,071380603E0	3,580000000E0	3,550000000E0	-2,440000000E0	5,601115960E0
9,080267846E0	3,540000000E0	3,090000000E0	-2,240000000E0	5,205506700E0
9,090847061E0	3,240000000E0	2,470000000E0	-2,820000000E0	4,954886477E0
9,101783493E0	3,100000000E0	1,730000000E0	-2,480000000E0	4,330508053E0
9,112643145E0	3,030000000E0	1,410000000E0	-2,470000000E0	4,155706919E0
9,122500357E0	2,770000000E0	6,500000000E-1	-2,600000000E0	3,854270359E0
9,131531525E0	2,510000000E0	2,900000000E-1	-2,000000000E0	3,222452482E0
9,140137431E0	2,270000000E0	-2,700000000E-1	-1,790000000E0	2,903429007E0
9,151191570E0	2,200000000E0	-5,500000000E-1	-1,560000000E0	2,752471617E0
9,162624662E0	1,880000000E0	-9,200000000E-1	-6,300000000E-1	2,185795050E0
9,171857069E0	1,560000000E0	-1,390000000E0	-2,900000000E-1	2,109454906E0
9,182955298E0	1,410000000E0	-1,350000000E0	2,300000000E-1	1,965578795E0
9,192662891E0	1,060000000E0	-1,820000000E0	9,800000000E-1	2,323015282E0
9,202096922E0	8,600000000E-1	-1,920000000E0	1,070000000E0	2,360275408E0
9,212112385E0	4,200000000E-1	-1,870000000E0	1,500000000E0	2,433783063E0
9,220636889E0	2,000000000E-1	-2,070000000E0	2,180000000E0	3,012855788E0
9,230465033E0	-2,900000000E-1	-1,940000000E0	2,110000000E0	2,880937347E0
9,239563698E0	-5,900000000E-1	-2,210000000E0	2,640000000E0	3,493107499E0
9,250201069E0	-9,800000000E-1	-2,230000000E0	2,450000000E0	3,454822716E0
9,260208784E0	-1,680000000E0	-2,150000000E0	2,760000000E0	3,881043674E0
9,271315341E0	-2,050000000E0	-2,150000000E0	2,450000000E0	3,850649296E0
9,282505286E0	-2,540000000E0	-2,210000000E0	2,340000000E0	4,100158534E0
9,291955563E0	-3,190000000E0	-2,480000000E0	2,070000000E0	4,539977974E0
9,301296714E0	-3,400000000E0	-2,460000000E0	1,650000000E0	4,509334762E0
9,312614105E0	-4,010000000E0	-2,580000000E0	1,280000000E0	4,937094287E0
9,322626098E0	-4,450000000E0	-2,570000000E0	9,300000000E-1	5,222288770E0
9,331415645E0	-5,110000000E0	-2,800000000E0	3,200000000E-1	5,835623360E0
9,340053300E0	-5,530000000E0	-2,670000000E0	3,600000000E-1	6,151373830E0
9,351524577E0	-5,980000000E0	-2,820000000E0	-1,000000000E-1	6,612321831E0
9,361762067E0	-6,680000000E0	-3,100000000E0	-7,200000000E-1	7,399378352E0
9,370425546E0	-6,970000000E0	-3,140000000E0	-9,200000000E-1	7,699798699E0
9,380459313E0	-7,610000000E0	-3,230000000E0	-1,010000000E0	8,328571306E0
9,390471626E0	-8,110000000E0	-3,130000000E0	-9,200000000E-1	8,741590244E0
9,400277790E0	-8,580000000E0	-3,400000000E0	-1,060000000E0	9,289779330E0
9,411631631E0	-9,080000000E0	-3,470000000E0	-1,080000000E0	9,780270957E0
9,422977947E0	-9,450000000E0	-3,480000000E0	-6,800000000E-1	1,009332948E1
9,431852850E0	-9,850000000E0	-3,770000000E0	-7,800000000E-1	1,057562291E1
9,440808012E0	-9,900000000E0	-3,680000000E0	-3,000000000E-1	1,056609672E1
9,450530478E0	-1,012000000E1	-4,020000000E0	-1,000000000E-2	1,088921026E1
9,461532557E0	-1,068000000E1	-4,240000000E0	-3,000000000E-2	1,149090510E1
9,471903815E0	-1,088000000E1	-4,320000000E0	4,800000000E-1	1,171610857E1
9,482593306E0	-1,104000000E1	-4,240000000E0	7,500000000E-1	1,184996624E1
9,492821481E0	-1,078000000E1	-4,460000000E0	1,130000000E0	1,172078922E1
9,501951652E0	-1,110000000E1	-4,400000000E0	9,100000000E-1	1,197489457E1
9,512904948E0	-1,084000000E1	-4,630000000E0	1,050000000E0	1,183406101E1
9,521447011E0	-1,089000000E1	-4,660000000E0	1,270000000E0	1,191304327E1
9,532042464E0	-1,076000000E1	-4,890000000E0	7,600000000E-1	1,184344967E1
9,541125482E0	-1,056000000E1	-4,900000000E0	9,800000000E-1	1,168263669E1
9,551038757E0	-1,014000000E1	-4,960000000E0	4,600000000E-1	1,129746874E1
9,562464156E0	-1,001000000E1	-5,180000000E0	9,000000000E-2	1,127122886E1
9,572581264E0	-9,330000000E0	-5,230000000E0	4,000000000E-2	1,069595251E1
9,581252110E0	-9,060000000E0	-5,180000000E0	-6,100000000E-1	1,045409489E1
9,591038450E0	-8,700000000E0	-5,230000000E0	-1,080000000E0	1,020829565E1
9,601519251E0	-8,160000000E0	-5,520000000E0	-1,520000000E0	9,968269659E0
9,610189371E0	-7,520000000E0	-5,680000000E0	-1,600000000E0	9,558912072E0
9,619447333E0	-6,960000000E0	-5,480000000E0	-1,940000000E0	9,068384641E0
9,628002341E0	-6,530000000E0	-5,670000000E0	-2,380000000E0	8,969626525E0
9,638122546E0	-5,840000000E0	-5,550000000E0	-2,470000000E0	8,426683808E0
9,647766978E0	-5,130000000E0	-5,680000000E0	-2,690000000E0	8,112669105E0
9,657778048E0	-4,250000000E0	-5,860000000E0	-2,440000000E0	7,639090260E0
9,667165559E0	-3,680000000E0	-5,740000000E0	-2,620000000E0	7,304409627E0
9,677635980E0	-2,780000000E0	-5,880000000E0	-2,310000000E0	6,902093885E0
9,686655238E0	-2,160000000E0	-5,850000000E0	-1,930000000E0	6,527863356E0
9,697875195E0	-1,320000000E0	-5,820000000E0	-1,880000000E0	6,256932156E0
9,709255439E0	-4,700000000E-1	-5,950000000E0	-1,030000000E0	6,056756558E0
9,719234420E0	3,600000000E-1	-5,840000000E0	-7,800000000E-1	5,902846771E0
9,729130590E0	1,040000000E0	-6,030000000E0	-1,900000000E-1	6,121976805E0
9,740209440E0	1,940000000E0	-6,040000000E0	2,100000000E-1	6,347385288E0
9,749578954E0	2,420000000E0	-5,940000000E0	9,000000000E-1	6,476881966E0
9,760488271E0	3,230000000E0	-6,010000000E0	1,440000000E0	6,973277565E0
9,769850194E0	4,040000000E0	-5,890000000E0	1,780000000E0	7,360849136E0
9,780510088E0	4,540000000E0	-5,920000000E0	2,290000000E0	7,803979754E0
9,790012122E0	5,260000000E0	-5,820000000E0	2,350000000E0	8,189169677E0
9,800319927E0	5,870000000E0	-5,750000000E0	2,300000000E0	8,532842434E0
9,811597532E0	6,320000000E0	-5,790000000E0	2,820000000E0	9,023242211E0
9,820260506E0	6,560000000E0	-5,620000000E0	2,620000000E0	9,026760216E0
9,831182270E0	7,250000000E0	-5,580000000E0	2,510000000E0	9,486780276E0
9,841307807E0	7,590000000E0	-5,440000000E0	2,280000000E0	9,612497074E0
9,850945010E0	7,780000000E0	-5,590000000E0	1,720000000E0	9,733185501E0
9,860495836E0	8,250000000E0	-5,400000000E0	1,510000000E0	9,975098997E0
9,869204072E0	8,330000000E0	-4,970000000E0	1,080000000E0	9,759928278E0
9,878479208E0	8,360000000E0	-4,790000000E0	9,800000000E-1	9,684735412E0
9,888848619E0	8,520000000E0	-4,230000000E0	6,600000000E-1	9,535140272E0
9,897641389E0	8,680000000E0	-4,030000000E0	2,200000000E-1	9,572444829E0
9,908149611E0	8,890000000E0	-3,400000000E0	-8,000000000E-2	9,518324432E0
9,919536371E0	8,990000000E0	-2,950000000E0	-6,700000000E-1	9,485330780E0
9,930978699E0	8,710000000E0	-2,110000000E0	-1,080000000E0	9,026771294E0
9,942146423E0	8,620000000E0	-1,270000000E0	-1,050000000E0	8,776092525E0
9,953066256E0	8,730000000E0	-5,100000000E-1	-1,230000000E0	8,830962575E0
9,962100116E0	8,540000000E0	-2,000000000E-2	-1,140000000E0	8,615776227E0
9,973510583E0	8,380000000E0	8,800000000E-1	-1,060000000E0	8,492490801E0
9,982618753E0	8,350000000E0	1,580000000E0	-9,400000000E-1	8,550000000E0
9,993725902E0	8,170000000E0	2,350000000E0	-4,400000000E-1	8,512637664E0
1,000485952E1	7,950000000E0	3,200000000E0	-2,000000000E-1	8,572193418E0
1,001522525E1	7,650000000E0	4,080000000E0	2,000000000E-1	8,672306498E0
1,002528917E1	7,140000000E0	4,680000000E0	5,600000000E-1	8,555442712E0
1,003439044E1	6,970000000E0	5,010000000E0	4,200000000E-1	8,594032814E0
1,004444885E1	6,870000000E0	5,650000000E0	9,900000000E-1	8,949832401E0
1,005382071E1	6,770000000E0	6,150000000E0	1,060000000E0	9,207551249E0
1,006269835E1	6,240000000E0	6,260000000E0	1,060000000E0	8,902179508E0
1,007158292E1	6,160000000E0	6,670000000E0	1,300000000E0	9,171940907E0
1,008248644E1	5,850000000E0	6,850000000E0	1,040000000E0	9,067888398E0
1,009375365E1	5,580000000E0	6,970000000E0	6,600000000E-1	8,952815200E0
1,010267925E1	5,330000000E0	6,670000000E0	5,300000000E-1	8,554454980E0
1,011121904E1	5,130000000E0	6,870000000E0	4,000000000E-1	8,583344337E0
1,012050994E1	4,910000000E0	6,720000000E0	3,000000000E-1	8,328054995E0
1,012941325E1	4,670000000E0	6,230000000E0	-9,000000000E-2	7,786520404E0
1,013847913E1	4,630000000E0	6,060000000E0	-3,800000000E-1	7,635764533E0
1,014872911E1	4,390000000E0	5,460000000E0	-1,130000000E0	7,096520274E0
1,015849599E1	4,290000000E0	5,190000000E0	-1,410000000E0	6,879556672E0
1,016828368E1	4,070000000E0	4,730000000E0	-1,630000000E0	6,449395320E0
1,017740052E1	4,010000000E0	4,250000000E0	-1,890000000E0	6,141229519E0
1,018789429E1	3,600000000E0	3,690000000E0	-2,290000000E0	5,640939638E0
1,019726282E1	3,620000000E0	2,940000000E0	-2,600000000E0	5,339288342E0
1,020696026E1	3,270000000E0	2,310000000E0	-2,680000000E0	4,817821084E0
1,021685050E1	3,180000000E0	1,990000000E0	-2,480000000E0	4,496987881E0
1,022806377E1	3,020000000E0	1,080000000E0	-2,430000000E0	4,023891152E0
1,023730284E1	2,690000000E0	6,700000000E-1	-2,510000000E0	3,739665760E0
1,024795884E1	2,490000000E0	1,500000000E-1	-1,870000000E0	3,117611265E0
1,025738694E1	2,360000000E0	-9,000000000E-2	-2,000000000E0	3,094785938E0
1,026857022E1	1,930000000E0	-6,500000000E-1	-1,430000000E0	2,488433242E0
1,027825246E1	1,840000000E0	-8,400000000E-1	-8,700000000E-1	2,201840140E0
1,028826795E1	1,440000000E0	-1,190000000E0	-1,700000000E-1	1,875793166E0
1,029939959E1	1,180000000E0	-1,400000000E0	2,900000000E-1	1,853779922E0
1,030991788E1	1,010000000E0	-1,610000000E0	8,800000000E-1	2,094421161E0
1,031870095E1	8,600000000E-1	-1,710000000E0	1,440000000E0	2,395266165E0
1,032761146E1	5,800000000E-1	-2,010000000E0	1,540000000E0	2,597710530E0
1,033908366E1	-7,000000000E-2	-2,080000000E0	1,880000000E0	2,804585531E0
1,034767097E1	-4,300000000E-1	-2,030000000E0	2,240000000E0	3,053424307E0
1,035707359E1	-6,600000000E-1	-2,090000000E0	2,510000000E0	3,332236486E0
1,036845027E1	-1,160000000E0	-2,070000000E0	2,420000000E0	3,389232952E0
1,037699559E1	-1,540000000E0	-2,100000000E0	2,380000000E0	3,527888887E0
1,038597978E1	-1,800000000E0	-2,320000000E0	2,660000000E0	3,962070166E0
1,039511988E1	-2,250000000E0	-2,440000000E0	2,640000000E0	4,240955081E0
1,040387905E1	-2,710000000E0	-2,280000000E0	2,410000000E0	4,283760031E0
1,041379493E1	-3,170000000E0	-2,360000000E0	1,840000000E0	4,359369220E0
1,042407225E1	-3,700000000E0	-2,580000000E0	1,520000000E0	4,759915966E0
1,043352721E1	-4,150000000E0	-2,730000000E0	1,340000000E0	5,144997570E0
1,044235316E1	-4,510000000E0	-2,810000000E0	1,060000000E0	5,418468418E0
1,045328603E1	-5,070000000E0	-2,820000000E0	3,100000000E-1	5,809767637E0
1,046419944E1	-5,620000000E0	-2,910000000E0	1,900000000E-1	6,331555891E0
1,047438574E1	-6,180000000E0	-3,030000000E0	-2,800000000E-1	6,888519435E0
1,048329897E1	-6,900000000E0	-3,170000000E0	-8,100000000E-1	7,636425866E0
1,049342470E1	-7,280000000E0	-3,220000000E0	-8,800000000E-1	8,008820138E0
1,050381327E1	-7,660000000E0	-3,270000000E0	-1,250000000E0	8,422054381E0
1,051359815E1	-8,280000000E0	-3,460000000E0	-1,110000000E0	9,042239767E0
1,052468974E1	-8,650000000E0	-3,530000000E0	-1,030000000E0	9,399164857E0
1,053435988E1	-9,240000000E0	-3,560000000E0	-8,000000000E-1	9,934344468E0
1,054439254E1	-9,560000000E0	-3,520000000E0	-8,800000000E-1	1,022538019E1
1,055323497E1	-9,800000000E0	-3,610000000E0	-5,300000000E-1	1,045719848E1
1,056342562E1	-1,023000000E1	-3,890000000E0	-2,700000000E-1	1,094796328E1
1,057422497E1	-1,039000000E1	-4,110000000E0	-5,000000000E-2	1,117348200E1
1,058491874E1	-1,068000000E1	-4,170000000E0	2,900000000E-1	1,146888835E1
1,059418968E1	-1,062000000E1	-4,140000000E0	4,600000000E-1	1,140769915E1
1,060566528E1	-1,094000000E1	-4,360000000E0	7,900000000E-1	1,180327497E1
1,061632508E1	-1,098000000E1	-4,420000000E0	9,000000000E-1	1,187041701E1
1,062609634E1	-1,084000000E1	-4,460000000E0	1,240000000E0	1,178706070E1
1,063584107E1	-1,087000000E1	-4,590000000E0	8,800000000E-1	1,183213421E1
1,064667904E1	-1,094000000E1	-4,640000000E0	1,210000000E0	1,194476036E1
1,065570609E1	-1,073000000E1	-5,000000000E0	1,040000000E0	1,188337073E1
1,066612497E1	-1,037000000E1	-5,030000000E0	4,700000000E-1	1,153510728E1
1,067678149E1	-1,022000000E1	-5,220000000E0	5,400000000E-1	1,148862046E1
1,068683051E1	-9,870000000E0	-5,140000000E0	4,000000000E-2	1,112825683E1
1,069795011E1	-9,310000000E0	-5,210000000E0	-3,000000000E-1	1,067287215E1
1,070785601E1	-8,920000000E0	-5,420000000E0	-6,900000000E-1	1,046034894E1
1,071775069E1	-8,510000000E0	-5,570000000E0	-9,800000000E-1	1,021789607E1
1,072710473E1	-7,920000000E0	-5,500000000E0	-1,470000000E0	9,753835143E0
1,073836285E1	-7,240000000E0	-5,680000000E0	-1,800000000E0	9,376566536E0
1,074781166E1	-6,870000000E0	-5,740000000E0	-2,290000000E0	9,240595219E0
1,075839747E1	-6,110000000E0	-5,740000000E0	-2,620000000E0	8,783171409E0
1,076812553E1	-5,440000000E0	-5,590000000E0	-2,470000000E0	8,181845758E0
1,077943180E1	-4,440000000E0	-5,860000000E0	-2,370000000E0	7,724642387E0
1,079077568E1	-3,900000000E0	-5,780000000E0	-2,770000000E0	7,502752828E0
1,079936578E1	-3,160000000E0	-5,930000000E0	-2,220000000E0	7,076644685E0
1,081084939E1	-2,350000000E0	-5,960000000E0	-2,210000000E0	6,777034750E0
1,082116419E1	-1,390000000E0	-6,080000000E0	-1,730000000E0	6,472356603E0
1,082988575E1	-6,900000000E-1	-6,080000000E0	-1,570000000E0	6,317230406E0
1,083987685E1	-2,000000000E-1	-5,890000000E0	-9,000000000E-1	5,961719551E0
1,084852526E1	7,300000000E-1	-6,020000000E0	-6,000000000E-1	6,093709872E0
1,085867194E1	1,420000000E0	-6,080000000E0	1,000000000E-1	6,244421510E0
1,086772831E1	1,900000000E0	-5,830000000E0	3,100000000E-1	6,139625396E0
1,087733213E1	2,820000000E0	-5,860000000E0	8,200000000E-1	6,554723488E0
1,088674623E1	3,240000000E0	-6,060000000E0	1,410000000E0	7,014934070E0
1,089705286E1	4,080000000E0	-5,980000000E0	1,580000000E0	7,409669358E0
1,090801995E1	4,510000000E0	-5,900000000E0	2,380000000E0	7,798365213E0
1,091932956E1	5,290000000E0	-6,010000000E0	2,480000000E0	8,381801716E0
1,092881613E1	5,820000000E0	-5,880000000E0	2,800000000E0	8,734231506E0
1,093902520E1	6,460000000E0	-5,880000000E0	2,450000000E0	9,072403210E0
1,094754290E1	6,830000000E0	-5,650000000E0	2,690000000E0	9,263233777E0
1,095715939E1	7,130000000E0	-5,830000000E0	2,320000000E0	9,497799745E0
1,096854150E1	7,380000000E0	-5,390000000E0	2,020000000E0	9,359321557E0
1,097739802E1	7,800000000E0	-5,530000000E0	1,950000000E0	9,758247794E0
1,098850750E1	8,090000000E0	-5,280000000E0	1,580000000E0	9,788917203E0
1,099896502E1	8,550000000E0	-5,100000000E0	1,230000000E0	1,003122126E1
1,100834670E1	8,620000000E0	-4,520000000E0	8,100000000E-1	9,766826506E0
1,101918118E1	8,670000000E0	-4,150000000E0	2,400000000E-1	9,615040302E0
1,102854903E1	8,750000000E0	-4,010000000E0	1,300000000E-1	9,625980470E0
1,103973347E1	8,950000000E0	-3,300000000E0	-4,600000000E-1	9,550083769E0
1,104848175E1	8,730000000E0	-2,860000000E0	-7,000000000E-1	9,213169921E0
1,105733873E1	8,970000000E0	-2,260000000E0	-6,600000000E-1	9,273839550E0
1,106808876E1	8,870000000E0	-1,660000000E0	-8,900000000E-1	9,067778118E0
1,107793630E1	8,700000000E0	-7,700000000E-1	-9,400000000E-1	8,784446482E0
1,108687869E1	8,700000000E0	-3,900000000E-1	-8,500000000E-1	8,750119999E0
1,109691899E1	8,460000000E0	5,600000000E-1	-8,300000000E-1	8,519043374E0
1,110630990E1	8,220000000E0	1,060000000E0	-1,020000000E0	8,350592793E0
1,111645785E1	8,130000000E0	1,950000000E0	-4,500000000E-1	8,372687741E0
1,112718899E1	7,790000000E0	2,650000000E0	-4,300000000E-1	8,239629846E0
1,113825951E1	7,560000000E0	3,460000000E0	-1,200000000E-1	8,315022550E0
1,114693651E1	7,490000000E0	4,040000000E0	-2,000000000E-2	8,510117508E0
1,115721357E1	7,380000000E0	4,700000000E0	3,100000000E-1	8,755027127E0
1,116866457E1	6,890000000E0	5,140000000E0	6,700000000E-1	8,622099512E0
1,117854396E1	6,750000000E0	5,600000000E0	6,100000000E-1	8,791734755E0
1,118935266E1	6,650000000E0	6,340000000E0	1,100000000E0	9,253545267E0
1,119814444E1	6,380000000E0	6,360000000E0	9,800000000E-1	9,061699620E0
1,120926496E1	6,130000000E0	6,640000000E0	1,150000000E0	9,109829856E0
1,121951112E1	5,810000000E0	6,720000000E0	1,090000000E0	8,950005587E0
1,123067591E1	5,510000000E0	6,880000000E0	8,500000000E-1	8,855337374E0
1,124153727E1	5,260000000E0	6,910000000E0	3,100000000E-1	8,689752586E0
1,125264499E1	5,020000000E0	6,500000000E0	2,200000000E-1	8,215765333E0
1,126131687E1	4,790000000E0	6,250000000E0	-2,000000000E-1	7,876966421E0
1,127196345E1	4,530000000E0	5,900000000E0	-4,300000000E-1	7,450892564E0
1,128105439E1	4,310000000E0	5,430000000E0	-7,900000000E-1	6,977470889E0
1,129035182E1	4,070000000E0	5,030000000E0	-1,270000000E0	6,593838033E0
1,129982617E1	3,990000000E0	4,540000000E0	-1,510000000E0	6,229911717E0
1,131010011E1	3,940000000E0	4,090000000E0	-2,150000000E0	6,072413029E0
1,132048369E1	3,680000000E0	3,740000000E0	-2,100000000E0	5,651548460E0
1,133177802E1	3,330000000E0	2,790000000E0	-2,250000000E0	4,892392053E0
1,134031618E1	3,410000000E0	2,440000000E0	-2,380000000E0	4,821420952E0
1,134939649E1	2,970000000E0	1,800000000E0	-2,460000000E0	4,255878288E0
1,135898250E1	3,100000000E0	1,210000000E0	-2,610000000E0	4,229207964E0
1,136993652E1	2,800000000E0	9,200000000E-1	-2,180000000E0	3,665896889E0
1,138008625E1	2,560000000E0	1,700000000E-1	-2,110000000E0	3,321836841E0
1,139012222E1	2,300000000E0	-2,700000000E-1	-1,950000000E0	3,027441164E0
1,140090278E1	2,210000000E0	-4,600000000E-1	-1,350000000E0	2,630247137E0
1,141136795E1	1,680000000E0	-1,020000000E0	-7,100000000E-1	2,089712899E0
1,142073752E1	1,450000000E0	-1,310000000E0	-3,300000000E-1	1,981792118E0
1,142949887E1	1,400000000E0	-1,270000000E0	2,000000000E-1	1,900763005E0
1,143938579E1	1,050000000E0	-1,730000000E0	3,100000000E-1	2,047315315E0
1,145052629E1	7,500000000E-1	-1,690000000E0	1,320000000E0	2,271783440E0
1,146082071E1	4,700000000E-1	-1,990000000E0	1,760000000E0	2,697888063E0
1,146948058E1	1,000000000E-2	-1,970000000E0	1,880000000E0	2,723123207E0
1,147930081E1	-1,000000000E-2	-2,120000000E0	2,400000000E0	3,202264824E0
1,148895465E1	-4,800000000E-1	-2,160000000E0	2,260000000E0	3,162846819E0
1,149920192E1	-1,090000000E0	-2,000000000E0	2,500000000E0	3,382026020E0
1,150946330E1	-1,290000000E0	-2,050000000E0	2,450000000E0	3,445156020E0
1,152081730E1	-1,850000000E0	-2,360000000E0	2,640000000E0	3,995209632E0
1,153033158E1	-2,230000000E0	-2,220000000E0	2,620000000E0	4,094593997E0
1,154005587E1	-2,660000000E0	-2,490000000E0	2,400000000E0	4,362992093E0
1,155039641E1	-3,070000000E0	-2,500000000E0	1,670000000E0	4,296952408E0
1,156155558E1	-3,920000000E0	-2,660000000E0	1,630000000E0	5,009880238E0
1,157217401E1	-4,150000000E0	-2,540000000E0	1,110000000E0	4,990611185E0
1,158208667E1	-4,830000000E0	-2,590000000E0	5,500000000E-1	5,508130354E0
1,159303037E1	-5,490000000E0	-2,670000000E0	4,600000000E-1	6,122140149E0
1,160298629E1	-5,930000000E0	-2,750000000E0	-9,000000000E-2	6,537239479E0
1,161437685E1	-6,510000000E0	-2,990000000E0	-7,000000000E-1	7,197930258E0
1,162372435E1	-6,790000000E0	-3,150000000E0	-7,700000000E-1	7,524593012E0
1,163260653E1	-7,340000000E0	-3,300000000E0	-8,000000000E-1	8,087372874E0
1,164359773E1	-8,020000000E0	-3,260000000E0	-8,500000000E-1	8,698879238E0
1,165298963E1	-8,210000000E0	-3,180000000E0	-1,220000000E0	8,888470060E0
1,166403181E1	-8,760000000E0	-3,470000000E0	-9,900000000E-1	9,474101541E0
1,167436003E1	-9,050000000E0	-3,520000000E0	-1,130000000E0	9,775980769E0
1,168438691E1	-9,690000000E0	-3,520000000E0	-5,500000000E-1	1,032419488E1
1,169314800E1	-9,690000000E0	-3,630000000E0	-8,100000000E-1	1,037926298E1
1,170400695E1	-1,000000000E1	-3,800000000E0	-6,000000000E-2	1,069783156E1
1,171270472E1	-1,053000000E1	-3,940000000E0	-3,000000000E-2	1,124301561E1
1,172410017E1	-1,061000000E1	-4,190000000E0	3,800000000E-1	1,141370229E1
1,173523110E1	-1,091000000E1	-4,130000000E0	6,200000000E-1	1,168201181E1
1,174464000E1	-1,087000000E1	-4,350000000E0	7,400000000E-1	1,173145345E1
1,175352360E1	-1,108000000E1	-4,350000000E0	8,700000000E-1	1,193506598E1
1,176468063E1	-1,081000000E1	-4,640000000E0	8,800000000E-1	1,179661392E1
1,177462018E1	-1,101000000E1	-4,490000000E0	9,600000000E-1	1,192903181E1
1,178349480E1	-1,075000000E1	-4,850000000E0	8,400000000E-1	1,182330749E1
1,179349037E1	-1,061000000E1	-4,730000000E0	8,300000000E-1	1,164619680E1
1,180273082E1	-1,054000000E1	-4,790000000E0	8,600000000E-1	1,160927646E1
1,181245433E1	-1,033000000E1	-5,140000000E0	5,800000000E-1	1,155270098E1
1,182287505E1	-9,770000000E0	-4,990000000E0	2,800000000E-1	1,097412411E1
1,183412115E1	-9,670000000E0	-5,160000000E0	-1,400000000E-1	1,096148256E1
1,184502394E1	-9,140000000E0	-5,270000000E0	-3,500000000E-1	1,055627775E1
1,185400696E1	-8,700000000E0	-5,470000000E0	-7,500000000E-1	1,030404775E1
1,186393897E1	-8,110000000E0	-5,520000000E0	-1,440000000E0	9,915447544E0
1,187391475E1	-7,640000000E0	-5,620000000E0	-1,660000000E0	9,628582450E0
1,188538320E1	-7,050000000E0	-5,630000000E0	-1,820000000E0	9,203901347E0
1,189414390E1	-6,350000000E0	-5,610000000E0	-2,400000000E0	8,806508956E0
1,190417620E1	-5,640000000E0	-5,640000000E0	-2,380000000E0	8,323677072E0
1,191541929E1	-4,880000000E0	-5,710000000E0	-2,530000000E0	7,925869038E0
1,192511584E1	-4,270000000E0	-5,880000000E0	-2,520000000E0	7,691404293E0
1,193440099E1	-3,660000000E0	-5,920000000E0	-2,500000000E0	7,395403978E0
1,194456879E1	-3,020000000E0	-5,810000000E0	-2,240000000E0	6,920556336E0
1,195402906E1	-2,130000000E0	-5,770000000E0	-2,170000000E0	6,522169884E0
1,196531029E1	-1,250000000E0	-6,060000000E0	-1,500000000E0	6,366796683E0
1,197406469E1	-6,600000000E-1	-6,010000000E0	-1,330000000E0	6,190686553E0
1,198318481E1	2,000000000E-1	-6,070000000E0	-1,020000000E0	6,158352052E0
1,199193643E1	5,800000000E-1	-5,830000000E0	-4,400000000E-1	5,875278717E0
1,200257209E1	1,560000000E0	-6,170000000E0	1,200000000E-1	6,365288682E0
1,201195152E1	2,190000000E0	-5,860000000E0	7,200000000E-1	6,297150149E0
1,202315203E1	3,030000000E0	-5,890000000E0	1,120000000E0	6,717693056E0
1,203433292E1	3,770000000E0	-6,030000000E0	1,560000000E0	7,280618106E0
1,204564208E1	4,240000000E0	-5,880000000E0	1,900000000E0	7,494131037E0
1,205491047E1	5,020000000E0	-5,960000000E0	2,210000000E0	8,099759256E0
1,206341244E1	5,320000000E0	-5,840000000E0	2,330000000E0	8,236315924E0
1,207307525E1	5,920000000E0	-5,880000000E0	2,630000000E0	8,748582742E0
1,208446294E1	6,570000000E0	-5,650000000E0	2,800000000E0	9,106448265E0
1,209525417E1	6,920000000E0	-5,750000000E0	2,590000000E0	9,362531709E0
1,210393315E1	7,260000000E0	-5,550000000E0	2,260000000E0	9,413697467E0
1,211454086E1	7,460000000E0	-5,510000000E0	1,940000000E0	9,474982850E0
1,212579205E1	7,990000000E0	-5,400000000E0	2,020000000E0	9,852943723E0
1,213719521E1	8,150000000E0	-4,950000000E0	1,330000000E0	9,627767135E0
1,214784318E1	8,430000000E0	-4,930000000E0	1,110000000E0	9,828626557E0
1,215893217E1	8,600000000E0	-4,310000000E0	8,000000000E-1	9,652776803E0
1,216995727E1	8,940000000E0	-3,840000000E0	3,800000000E-1	9,737227531E0
1,217953229E1	8,890000000E0	-3,440000000E0	-1,500000000E-1	9,533530301E0
1,218832942E1	8,950000000E0	-3,070000000E0	-2,500000000E-1	9,465194134E0
1,219901181E1	8,760000000E0	-2,460000000E0	-7,800000000E-1	9,132228644E0
1,220792255E1	8,770000000E0	-1,810000000E0	-6,800000000E-1	8,980612451E0
1,221757515E1	8,910000000E0	-1,350000000E0	-9,300000000E-1	9,059552969E0
1,222906235E1	8,530000000E0	-4,100000000E-1	-1,280000000E0	8,635241745E0
1,223924171E1	8,700000000E0	3,000000000E-1	-8,700000000E-1	8,748537021E0
1,224930693E1	8,360000000E0	1,070000000E0	-1,090000000E0	8,498388082E0
1,226065057E1	8,150000000E0	1,760000000E0	-4,800000000E-1	8,351676478E0
1,227000269E1	8,020000000E0	2,510000000E0	-7,400000000E-1	8,436118776E0
1,228150098E1	7,750000000E0	3,120000000E0	-1,000000000E-1	8,355052364E0
1,229273692E1	7,510000000E0	3,850000000E0	-9,000000000E-2	8,439828197E0
1,230232864E1	7,270000000E0	4,450000000E0	3,500000000E-1	8,530996425E0
1,231181035E1	7,150000000E0	5,200000000E0	5,000000000E-1	8,855083286E0
1,232069004E1	6,780000000E0	5,500000000E0	9,500000000E-1	8,781850602E0
1,233193697E1	6,470000000E0	6,170000000E0	8,300000000E-1	8,978791678E0
1,234099440E1	6,340000000E0	6,180000000E0	1,140000000E0	8,926791137E0
1,234952133E1	6,010000000E0	6,440000000E0	1,290000000E0	8,902684988E0
1,236069156E1	5,870000000E0	6,870000000E0	8,100000000E-1	9,072480366E0
1,237098591E1	5,640000000E0	6,800000000E0	1,020000000E0	8,893255872E0
1,238150145E1	5,500000000E0	6,710000000E0	5,100000000E-1	8,691041365E0
1,239220088E1	5,030000000E0	6,790000000E0	5,700000000E-1	8,469350624E0
1,240082886E1	4,940000000E0	6,430000000E0	3,400000000E-1	8,115670028E0
1,240960443E1	4,890000000E0	6,460000000E0	-3,300000000E-1	8,108797691E0
1,241960394E1	4,530000000E0	5,880000000E0	-3,400000000E-1	7,430403758E0
1,242825472E1	4,530000000E0	5,750000000E0	-9,000000000E-1	7,375188133E0
1,243826768E1	4,300000000E0	5,170000000E0	-1,360000000E0	6,860648657E0
1,244897670E1	3,860000000E0	4,800000000E0	-1,430000000E0	6,323329819E0
1,245944893E1	3,790000000E0	4,020000000E0	-2,060000000E0	5,896448083E0
1,246979887E1	3,730000000E0	3,660000000E0	-2,430000000E0	5,763106801E0
1,247843809E1	3,490000000E0	2,950000000E0	-2,540000000E0	5,228211931E0
1,248764805E1	3,380000000E0	2,480000000E0	-2,370000000E0	4,815776158E0
1,249884054E1	3,290000000E0	1,910000000E0	-2,370000000E0	4,482086568E0
1,250771020E1	3,020000000E0	1,400000000E0	-2,590000000E0	4,217641521E0
1,251780987E1	2,780000000E0	9,100000000E-1	-2,420000000E0	3,796432536E0
1,252646001E1	2,720000000E0	5,000000000E-1	-2,170000000E0	3,515295151E0
1,253777762E1	2,340000000E0	-1,600000000E-1	-1,690000000E0	2,890899514E0
1,254679231E1	2,000000000E0	-6,100000000E-1	-1,760000000E0	2,733075191E0
1,255652238E1	1,870000000E0	-7,100000000E-1	-9,400000000E-1	2,210113119E0
1,256666272E1	1,750000000E0	-1,070000000E0	-3,600000000E-1	2,082546518E0
1,257731868E1	1,600000000E0	-1,360000000E0	-1,000000000E-1	2,102284472E0
1,258863103E1	1,170000000E0	-1,620000000E0	4,900000000E-1	2,057522782E0
1,259934012E1	7,400000000E-1	-1,640000000E0	1,270000000E0	2,202294258E0
1,260888223E1	7,000000000E-1	-1,970000000E0	1,420000000E0	2,527310824E0
1,261760825E1	2,000000000E-1	-1,840000000E0	1,750000000E0	2,547174906E0
1,262823046E1	-2,300000000E-1	-2,170000000E0	2,340000000E0	3,199593724E0
1,263964799E1	-5,400000000E-1	-2,040000000E0	2,410000000E0	3,203326396E0
1,264819904E1	-9,400000000E-1	-1,990000000E0	2,630000000E0	3,429373121E0
1,265902308E1	-1,460000000E0	-2,310000000E0	2,510000000E0	3,710498619E0
1,266805151E1	-1,640000000E0	-2,140000000E0	2,670000000E0	3,794482837E0
1,267793137E1	-2,080000000E0	-2,360000000E0	2,400000000E0	3,956766357E0
1,268799928E1	-2,440000000E0	-2,500000000E0	2,400000000E0	4,238348735E0
1,269834256E1	-3,220000000E0	-2,430000000E0	1,980000000E0	4,493740090E0
1,270981117E1	-3,510000000E0	-2,420000000E0	1,810000000E0	4,631695154E0
1,272037337E1	-4,070000000E0	-2,640000000E0	1,230000000E0	5,004737755E0
1,273005053E1	-4,740000000E0	-2,480000000E0	1,000000000E0	5,442242185E0
1,274069560E1	-5,200000000E0	-2,900000000E0	3,700000000E-1	5,965475673E0
1,275059579E1	-5,640000000E0	-2,890000000E0	1,200000000E-1	6,338461959E0
1,276033515E1	-6,240000000E0	-2,960000000E0	-4,100000000E-1	6,918619805E0
1,276993211E1	-6,790000000E0	-3,030000000E0	-5,300000000E-1	7,454253819E0
1,277991233E1	-7,020000000E0	-3,150000000E0	-7,200000000E-1	7,727955745E0
1,278925588E1	-7,690000000E0	-3,340000000E0	-1,110000000E0	8,457174469E0
1,279848218E1	-8,000000000E0	-3,370000000E0	-1,020000000E0	8,740554902E0
1,280742758E1	-8,410000000E0	-3,440000000E0	-8,600000000E-1	9,126954585E0
1,281724825E1	-8,660000000E0	-3,400000000E0	-1,180000000E0	9,378059501E0
1,282662803E1	-9,140000000E0	-3,600000000E0	-9,300000000E-1	9,867345134E0
1,283763886E1	-9,580000000E0	-3,600000000E0	-5,700000000E-1	1,024994146E1
1,284868254E1	-9,740000000E0	-3,810000000E0	-5,300000000E-1	1,047208671E1
1,285821417E1	-1,023000000E1	-3,950000000E0	-4,900000000E-1	1,097704423E1
1,286857160E1	-1,035000000E1	-4,130000000E0	4,000000000E-2	1,114365290E1
1,287977847E1	-1,074000000E1	-4,230000000E0	3,000000000E-1	1,154688270E1
1,288935596E1	-1,070000000E1	-4,090000000E0	7,700000000E-1	1,148089718E1
1,289952010E1	-1,081000000E1	-4,360000000E0	8,600000000E-1	1,168782700E1
1,290935078E1	-1,083000000E1	-4,510000000E0	1,070000000E0	1,178023344E1
1,291980157E1	-1,095000000E1	-4,660000000E0	9,700000000E-1	1,193980737E1
1,293118089E1	-1,097000000E1	-4,540000000E0	1,270000000E0	1,194007538E1
1,294009676E1	-1,073000000E1	-4,690000000E0	1,190000000E0	1,177051826E1
1,295149291E1	-1,044000000E1	-4,810000000E0	6,700000000E-1	1,151427809E1
1,296199011E1	-1,041000000E1	-4,870000000E0	7,400000000E-1	1,151662277E1
1,297287773E1	-1,021000000E1	-5,170000000E0	5,700000000E-1	1,145852957E1
1,298328309E1	-9,800000000E0	-5,090000000E0	1,000000000E-1	1,104346413E1
1,299439404E1	-9,100000000E0	-5,420000000E0	-1,500000000E-1	1,059287024E1
1,300387276E1	-9,010000000E0	-5,290000000E0	-8,800000000E-1	1,048516094E1
1,301449690E1	-8,480000000E0	-5,490000000E0	-1,130000000E0	1,016500861E1
1,302378924E1	-7,980000000E0	-5,440000000E0	-1,510000000E0	9,775177748E0
1,303381521E1	-7,140000000E0	-5,660000000E0	-1,980000000E0	9,323926212E0
1,304435968E1	-6,680000000E0	-5,690000000E0	-2,040000000E0	9,008890054E0
1,305346306E1	-6,000000000E0	-5,630000000E0	-2,420000000E0	8,576322056E0
1,306214654E1	-5,420000000E0	-5,590000000E0	-2,450000000E0	8,162536371E0
1,307301938E1	-4,770000000E0	-5,850000000E0	-2,470000000E0	7,942058927E0
1,308394622E1	-3,900000000E0	-5,960000000E0	-2,470000000E0	7,538733315E0
1,309444321E1	-3,230000000E0	-6,020000000E0	-2,660000000E0	7,331364130E0
1,310390751E1	-2,510000000E0	-5,860000000E0	-2,480000000E0	6,840328939E0
1,311438203E1	-1,810000000E0	-5,810000000E0	-1,780000000E0	6,340394310E0
1,312313367E1	-1,270000000E0	-6,130000000E0	-1,540000000E0	6,446813166E0
1,313362120E1	-2,900000000E-1	-6,040000000E0	-1,340000000E0	6,193649974E0
1,314384979E1	3,500000000E-1	-6,110000000E0	-8,700000000E-1	6,181545114E0
1,315420141E1	1,100000000E0	-5,840000000E0	-1,700000000E-1	5,945124053E0
1,316404236E1	2,010000000E0	-6,130000000E0	1,700000000E-1	6,453363464E0
1,317321783E1	2,460000000E0	-6,140000000E0	1,010000000E0	6,691135927E0
1,318389547E1	3,080000000E0	-5,890000000E0	1,150000000E0	6,745442906E0
1,319378786E1	3,900000000E0	-5,790000000E0	1,920000000E0	7,240200273E0
1,320452400E1	4,520000000E0	-5,840000000E0	2,180000000E0	7,699896103E0
1,321411654E1	4,910000000E0	-6,040000000E0	2,360000000E0	8,133836733E0
1,322287990E1	5,490000000E0	-5,910000000E0	2,580000000E0	8,469037726E0
1,323300728E1	6,090000000E0	-5,830000000E0	2,700000000E0	8,852513767E0
1,324337556E1	6,460000000E0	-5,640000000E0	2,500000000E0	8,932592009E0
1,325464089E1	7,180000000E0	-5,620000000E0	2,500000000E0	9,454459265E0
1,326580416E1	7,540000000E0	-5,760000000E0	2,080000000E0	9,713681074E0
1,327447560E1	7,720000000E0	-5,500000000E0	1,850000000E0	9,657686058E0
1,328529112E1	8,180000000E0	-5,200000000E0	1,960000000E0	9,889084892E0
1,329457521E1	8,100000000E0	-5,080000000E0	1,580000000E0	9,690861675E0
1,330516681E1	8,380000000E0	-4,740000000E0	1,120000000E0	9,692595112E0
1,331480525E1	8,780000000E0	-4,320000000E0	4,200000000E-1	9,794243207E0
1,332427149E1	8,750000000E0	-3,950000000E0	3,100000000E-1	9,605264182E0
1,333423634E1	8,710000000E0	-3,550000000E0	0,000000000E0	9,405668504E0
1,334432793E1	8,890000000E0	-3,140000000E0	-4,600000000E-1	9,439454433E0
1,335491138E1	8,950000000E0	-2,640000000E0	-7,700000000E-1	9,362958934E0
1,336532503E1	8,870000000E0	-2,060000000E0	-7,900000000E-1	9,140273519E0
1,337585980E1	8,610000000E0	-1,370000000E0	-1,270000000E0	8,810329165E0
1,338551203E1	8,510000000E0	-5,400000000E-1	-1,080000000E0	8,595237053E0
1,339604405E1	8,510000000E0	2,600000000E-1	-1,160000000E0	8,592630563E0
1,340558021E1	8,240000000E0	9,800000000E-1	-9,700000000E-1	8,354573598E0
1,341590281E1	8,090000000E0	1,750000000E0	-7,400000000E-1	8,310126353E0
1,342578141E1	8,100000000E0	2,250000000E0	-6,000000000E-1	8,428078073E0
1,343596981E1	7,820000000E0	2,980000000E0	-1,200000000E-1	8,369420530E0
1,344452242E1	7,510000000E0	3,510000000E0	1,100000000E-1	8,290494557E0
1,345451878E1	7,560000000E0	4,260000000E0	3,200000000E-1	8,683524630E0
1,346367869E1	7,170000000E0	4,940000000E0	5,700000000E-1	8,725674759E0
1,347333612E1	7,120000000E0	5,390000000E0	6,500000000E-1	8,953714313E0
1,348205744E1	6,820000000E0	5,680000000E0	7,100000000E-1	8,903869945E0
1,349252814E1	6,570000000E0	6,000000000E0	1,130000000E0	8,968935277E0
1,350370870E1	6,230000000E0	6,580000000E0	8,700000000E-1	9,103087388E0
1,351327250E1	6,080000000E0	6,800000000E0	1,110000000E0	9,189042388E0
1,352208770E1	5,720000000E0	6,880000000E0	1,070000000E0	9,010976640E0
1,353244850E1	5,490000000E0	6,760000000E0	6,700000000E-1	8,734220057E0
1,354132961E1	5,500000000E0	6,760000000E0	5,300000000E-1	8,730893425E0
1,355250448E1	5,020000000E0	6,690000000E0	4,700000000E-1	8,377195235E0
1,356137185E1	4,890000000E0	6,620000000E0	2,700000000E-1	8,234646319E0
1,357095746E1	4,820000000E0	6,120000000E0	-3,000000000E-1	7,795947665E0
1,358094144E1	4,470000000E0	5,840000000E0	-6,200000000E-1	7,380440366E0
1,358979506E1	4,310000000E0	5,350000000E0	-8,800000000E-1	6,926254399E0
1,359925130E1	4,320000000E0	4,900000000E0	-1,310000000E0	6,662469512E0
1,360857714E1	3,900000000E0	4,520000000E0	-1,700000000E0	6,207286041E0
1,361921704E1	3,720000000E0	4,150000000E0	-1,960000000E0	5,907833782E0
1,363067586E1	3,740000000E0	3,470000000E0	-2,220000000E0	5,563892522E0
1,364026437E1	3,360000000E0	2,860000000E0	-2,350000000E0	4,999169931E0
1,365113653E1	3,180000000E0	2,220000000E0	-2,570000000E0	4,652493955E0
1,366005755E1	3,220000000E0	1,670000000E0	-2,530000000E0	4,422465376E0
1,367029729E1	2,830000000E0	1,300000000E0	-2,680000000E0	4,108685921E0
1,368009543E1	2,880000000E0	7,000000000E-1	-2,530000000E0	3,896832047E0
1,368945998E1	2,640000000E0	1,100000000E-1	-1,960000000E0	3,289878417E0
1,370042511E1	2,420000000E0	-1,700000000E-1	-1,880000000E0	3,069152978E0
1,371116438E1	1,970000000E0	-4,500000000E-1	-1,340000000E0	2,424664925E0
1,372006637E1	1,760000000E0	-1,070000000E0	-7,000000000E-1	2,175430992E0
1,372944359E1	1,720000000E0	-1,020000000E0	-6,100000000E-1	2,090669749E0
1,374040211E1	1,460000000E0	-1,600000000E0	2,100000000E-1	2,176166354E0
1,375187940E1	9,400000000E-1	-1,750000000E0	5,700000000E-1	2,066639785E0
1,376221410E1	6,200000000E-1	-1,660000000E0	1,240000000E0	2,162775994E0
1,377332919E1	2,800000000E-1	-1,780000000E0	1,810000000E0	2,553996868E0
1,378478186E1	-1,400000000E-1	-2,140000000E0	2,220000000E0	3,086681065E0
1,379550349E1	-4,300000000E-1	-2,010000000E0	2,480000000E0	3,221086773E0
1,380593769E1	-8,000000000E-1	-2,090000000E0	2,540000000E0	3,385217866E0
1,381510141E1	-1,120000000E0	-2,210000000E0	2,630000000E0	3,613225706E0
1,382471268E1	-1,720000000E0	-2,120000000E0	2,440000000E0	3,661475113E0
1,383508334E1	-2,120000000E0	-2,220000000E0	2,320000000E0	3,847752591E0
1,384636255E1	-2,660000000E0	-2,430000000E0	2,430000000E0	4,345733540E0
1,385576809E1	-3,040000000E0	-2,390000000E0	1,840000000E0	4,282440893E0
1,386545372E1	-3,530000000E0	-2,380000000E0	1,980000000E0	4,695284869E0
1,387402043E1	-3,680000000E0	-2,470000000E0	1,300000000E0	4,618798545E0
1,388461061E1	-4,410000000E0	-2,580000000E0	1,160000000E0	5,239284302E0
1,389444132E1	-4,980000000E0	-2,590000000E0	6,400000000E-1	5,649610606E0
1,390533452E1	-5,340000000E0	-2,890000000E0	3,000000000E-1	6,079284497E0
1,391453548E1	-5,690000000E0	-3,000000000E0	4,000000000E-2	6,432550039E0
1,392501442E1	-6,280000000E0	-3,100000000E0	-5,200000000E-1	7,022734510E0
1,393553370E1	-6,840000000E0	-2,990000000E0	-5,300000000E-1	7,483755742E0
1,394542667E1	-7,410000000E0	-3,150000000E0	-7,600000000E-1	8,087533617E0
1,395449249E1	-7,820000000E0	-3,100000000E0	-9,700000000E-1	8,467780111E0
1,396420118E1	-8,280000000E0	-3,150000000E0	-1,030000000E0	8,918620970E0
1,397493631E1	-8,560000000E0	-3,560000000E0	-1,110000000E0	9,336985595E0
1,398400387E1	-8,920000000E0	-3,560000000E0	-7,400000000E-1	9,632632039E0
1,399277399E1	-9,360000000E0	-3,640000000E0	-9,000000000E-1	1,008311460E1
1,400266234E1	-9,570000000E0	-3,700000000E0	-7,900000000E-1	1,029072398E1
1,401186590E1	-9,920000000E0	-3,670000000E0	-4,100000000E-1	1,058505550E1
1,402276756E1	-1,021000000E1	-3,900000000E0	5,000000000E-2	1,092962030E1
1,403371929E1	-1,060000000E1	-4,120000000E0	3,500000000E-1	1,137791281E1
1,404505514E1	-1,081000000E1	-4,120000000E0	4,700000000E-1	1,157805683E1
1,405607442E1	-1,095000000E1	-4,350000000E0	6,300000000E-1	1,179923303E1
1,406651675E1	-1,078000000E1	-4,390000000E0	1,000000000E0	1,168248689E1
1,407557791E1	-1,084000000E1	-4,640000000E0	1,020000000E0	1,183535382E1
1,408654693E1	-1,078000000E1	-4,590000000E0	1,230000000E0	1,178089131E1
1,409723121E1	-1,071000000E1	-4,730000000E0	1,220000000E0	1,177138055E1
1,410797181E1	-1,056000000E1	-4,780000000E0	1,050000000E0	1,163892177E1
1,411856411E1	-1,048000000E1	-4,910000000E0	1,010000000E0	1,161716833E1
1,412955418E1	-1,009000000E1	-5,010000000E0	5,800000000E-1	1,128027482E1
1,413894771E1	-1,001000000E1	-5,040000000E0	4,600000000E-1	1,121665280E1
1,414946507E1	-9,460000000E0	-5,340000000E0	-7,000000000E-2	1,086333742E1
1,415951696E1	-9,260000000E0	-5,210000000E0	-6,700000000E-1	1,064615424E1
1,416903049E1	-8,510000000E0	-5,330000000E0	-8,400000000E-1	1,007643786E1
1,417851101E1	-8,070000000E0	-5,380000000E0	-1,140000000E0	9,765700180E0
1,418747742E1	-7,840000000E0	-5,550000000E0	-1,640000000E0	9,744624159E0
1,419745202E1	-7,060000000E0	-5,730000000E0	-2,100000000E0	9,332014788E0
1,420705817E1	-6,460000000E0	-5,490000000E0	-2,280000000E0	8,778957797E0
1,421682272E1	-6,120000000E0	-5,590000000E0	-2,280000000E0	8,596563267E0
1,422787773E1	-5,200000000E0	-5,590000000E0	-2,720000000E0	8,104720847E0
1,423842226E1	-4,520000000E0	-5,830000000E0	-2,860000000E0	7,911946663E0
1,424896301E1	-3,710000000E0	-5,720000000E0	-2,370000000E0	7,217991410E0
1,426041515E1	-2,780000000E0	-5,770000000E0	-2,140000000E0	6,752843845E0
1,426956862E1	-2,160000000E0	-5,910000000E0	-1,970000000E0	6,593527129E0
1,427959231E1	-1,600000000E0	-5,810000000E0	-1,670000000E0	6,253399076E0
1,428836987E1	-8,300000000E-1	-5,860000000E0	-1,370000000E0	6,074981481E0
1,429804824E1	-1,100000000E-1	-6,130000000E0	-1,030000000E0	6,216904374E0
1,430939929E1	5,200000000E-1	-6,130000000E0	-4,300000000E-1	6,167025215E0
1,431815705E1	1,190000000E0	-6,030000000E0	6,000000000E-2	6,146592552E0
1,432893022E1	2,030000000E0	-5,990000000E0	3,900000000E-1	6,336647379E0
1,434002653E1	2,720000000E0	-5,930000000E0	8,700000000E-1	6,581808262E0
1,435005336E1	3,400000000E0	-5,950000000E0	1,560000000E0	7,028235910E0
1,436094620E1	4,230000000E0	-5,820000000E0	1,940000000E0	7,451771601E0
1,437076933E1	4,910000000E0	-5,820000000E0	2,440000000E0	7,995880189E0
1,438032940E1	5,270000000E0	-6,030000000E0	2,370000000E0	8,351688452E0
1,439034659E1	5,860000000E0	-5,910000000E0	2,520000000E0	8,695866834E0
1,439943082E1	6,350000000E0	-5,680000000E0	2,430000000E0	8,859446935E0
1,440885328E1	6,740000000E0	-5,680000000E0	2,350000000E0	9,122088577E0
1,441826941E1	7,130000000E0	-5,870000000E0	2,300000000E0	9,517552206E0
1,442973463E1	7,320000000E0	-5,540000000E0	2,300000000E0	9,463825865E0
1,443924012E1	7,930000000E0	-5,580000000E0	2,230000000E0	9,949582906E0
1,444842673E1	7,940000000E0	-5,280000000E0	1,510000000E0	9,654123471E0
1,445974603E1	8,210000000E0	-4,850000000E0	1,120000000E0	9,601093688E0
1,446866178E1	8,500000000E0	-4,910000000E0	1,040000000E0	9,871154948E0
1,448005918E1	8,700000000E0	-4,260000000E0	4,000000000E-1	9,695235943E0
1,449111911E1	8,880000000E0	-3,930000000E0	-1,400000000E-1	9,711791802E0
1,450156029E1	8,780000000E0	-3,260000000E0	-8,000000000E-2	9,366023703E0
1,451134371E1	9,030000000E0	-2,790000000E0	-7,300000000E-1	9,479340694E0
1,452043543E1	8,910000000E0	-2,540000000E0	-8,100000000E-1	9,300311823E0
1,452925404E1	8,950000000E0	-1,790000000E0	-8,000000000E-1	9,162237718E0
1,453806507E1	8,760000000E0	-1,140000000E0	-8,900000000E-1	8,878586599E0
1,454761250E1	8,530000000E0	-6,800000000E-1	-8,400000000E-1	8,598191670E0
1,455733394E1	8,390000000E0	1,500000000E-1	-1,000000000E0	8,450715946E0
1,456860507E1	8,450000000E0	8,100000000E-1	-1,110000000E0	8,560998774E0
1,457871375E1	8,200000000E0	1,530000000E0	-9,700000000E-1	8,397725883E0
1,459018565E1	7,990000000E0	2,400000000E0	-4,400000000E-1	8,354262385E0
1,460084831E1	7,730000000E0	3,130000000E0	-2,300000000E-1	8,342823263E0
1,460978719E1	7,480000000E0	3,960000000E0	-1,300000000E-1	8,464567325E0
1,461994790E1	7,350000000E0	4,340000000E0	1,000000000E-1	8,536281392E0
1,462892601E1	7,070000000E0	4,910000000E0	4,200000000E-1	8,617969598E0
1,463754361E1	7,080000000E0	5,380000000E0	5,800000000E-1	8,911071765E0
1,464887498E1	6,560000000E0	5,950000000E0	8,200000000E-1	8,894295925E0
1,465838854E1	6,600000000E0	6,400000000E0	9,300000000E-1	9,240395013E0
1,466745730E1	6,350000000E0	6,530000000E0	1,190000000E0	9,185831481E0
1,467626267E1	5,970000000E0	6,800000000E0	1,040000000E0	9,108375267E0
1,468671909E1	5,860000000E0	6,670000000E0	1,160000000E0	8,953999107E0
1,469660254E1	5,560000000E0	6,890000000E0	8,300000000E-1	8,892390005E0
1,470513757E1	5,330000000E0	6,670000000E0	5,400000000E-1	8,555080362E0
1,471578311E1	5,210000000E0	6,780000000E0	5,700000000E-1	8,569562416E0
1,472505315E1	5,020000000E0	6,480000000E0	1,300000000E-1	8,198030251E0
1,473589482E1	4,580000000E0	6,000000000E0	-1,700000000E-1	7,550185428E0
1,474586064E1	4,630000000E0	5,890000000E0	-8,600000000E-1	7,541127237E0
1,475596738E1	4,120000000E0	5,350000000E0	-8,900000000E-1	6,810947071E0
1,476583898E1	3,930000000E0	4,870000000E0	-1,430000000E0	6,419244504E0
1,477636692E1	3,900000000E0	4,180000000E0	-1,930000000E0	6,033846203E0
1,478783706E1	3,630000000E0	3,850000000E0	-2,320000000E0	5,777698504E0
1,479873068E1	3,480000000E0	3,100000000E0	-2,640000000E0	5,356304696E0
1,480743798E1	3,340000000E0	2,720000000E0	-2,790000000E0	5,132065861E0
1,481742239E1	3,160000000E0	1,880000000E0	-2,770000000E0	4,603574698E0
1,482662525E1	3,150000000E0	1,590000000E0	-2,680000000E0	4,430914127E0
1,483543245E1	2,990000000E0	1,020000000E0	-2,470000000E0	4,010162091E0
1,484451798E1	2,620000000E0	6,200000000E-1	-2,360000000E0	3,580279319E0
1,485376232E1	2,410000000E0	2,200000000E-1	-2,280000000E0	3,324890976E0
1,486514150E1	2,300000000E0	-1,900000000E-1	-1,830000000E0	2,945335295E0
1,487587610E1	1,910000000E0	-5,600000000E-1	-1,440000000E0	2,456684758E0
1,488693500E1	1,720000000E0	-1,180000000E0	-9,100000000E-1	2,275719666E0
1,489753147E1	1,560000000E0	-1,220000000E0	-2,500000000E-1	1,996121239E0
1,490697843E1	1,060000000E0	-1,680000000E0	4,000000000E-1	2,026326726E0
1,491665175E1	1,060000000E0	-1,890000000E0	6,400000000E-1	2,259491093E0
1,492647379E1	7,500000000E-1	-1,920000000E0	1,460000000E0	2,525965162E0
1,493585402E1	3,300000000E-1	-2,020000000E0	1,900000000E0	2,792722686E0
1,494561834E1	-5,000000000E-2	-1,930000000E0	2,070000000E0	2,830600643E0
1,495643191E1	-3,400000000E-1	-2,060000000E0	2,090000000E0	2,954200399E0
1,496515902E1	-7,500000000E-1	-2,160000000E0	2,320000000E0	3,257376245E0
1,497448874E1	-9,300000000E-1	-2,060000000E0	2,590000000E0	3,437528182E0
1,498442582E1	-1,420000000E0	-2,050000000E0	2,830000000E0	3,771975610E0
1,499495449E1	-1,980000000E0	-2,210000000E0	2,780000000E0	4,066066896E0
1,500539228E1	-2,270000000E0	-2,260000000E0	2,490000000E0	4,057166499E0
1,501606723E1	-2,830000000E0	-2,250000000E0	2,310000000E0	4,290396252E0
1,502488302E1	-3,420000000E0	-2,510000000E0	1,650000000E0	4,551812826E0
1,503392528E1	-3,760000000E0	-2,330000000E0	1,540000000E0	4,683812550E0
1,504335222E1	-4,200000000E0	-2,680000000E0	1,170000000E0	5,117743643E0
1,505269728E1	-4,500000000E0	-2,800000000E0	6,800000000E-1	5,343444582E0
1,506346406E1	-5,260000000E0	-2,620000000E0	4,300000000E-1	5,892104887E0
1,507494401E1	-5,790000000E0	-2,940000000E0	1,000000000E-2	6,493673845E0
1,508549335E1	-6,130000000E0	-2,980000000E0	-1,400000000E-1	6,817396864E0
1,509409249E1	-6,750000000E0	-3,000000000E0	-8,300000000E-1	7,433128547E0
1,510348528E1	-7,060000000E0	-3,230000000E0	-9,200000000E-1	7,818113583E0
1,511439436E1	-7,830000000E0	-3,230000000E0	-1,150000000E0	8,547765790E0
1,512566738E1	-8,230000000E0	-3,360000000E0	-1,200000000E0	8,970089186E0
1,513595211E1	-8,740000000E0	-3,560000000E0	-1,140000000E0	9,505829790E0
1,514549858E1	-8,880000000E0	-3,480000000E0	-1,040000000E0	9,594081509E0
1,515506394E1	-9,350000000E0	-3,640000000E0	-6,100000000E-1	1,005207441E1
1,516546425E1	-9,820000000E0	-3,850000000E0	-7,200000000E-1	1,057228925E1
1,517655683E1	-1,020000000E1	-3,750000000E0	-3,800000000E-1	1,087413905E1
1,518607932E1	-1,034000000E1	-3,980000000E0	-2,900000000E-1	1,108332531E1
1,519515142E1	-1,065000000E1	-4,220000000E0	-1,000000000E-2	1,145560998E1
1,520365979E1	-1,063000000E1	-3,990000000E0	2,100000000E-1	1,135610409E1
1,521257220E1	-1,058000000E1	-4,220000000E0	6,000000000E-1	1,140634911E1
1,522362576E1	-1,071000000E1	-4,400000000E0	6,800000000E-1	1,159855594E1
1,523399952E1	-1,069000000E1	-4,390000000E0	8,100000000E-1	1,158465796E1
1,524547143E1	-1,048000000E1	-4,460000000E0	1,020000000E0	1,143513883E1
1,525417981E1	-1,040000000E1	-4,580000000E0	7,700000000E-1	1,138987708E1
1,526377786E1	-9,950000000E0	-4,530000000E0	1,130000000E0	1,099091898E1
1,527466499E1	-9,930000000E0	-4,630000000E0	5,800000000E-1	1,097169996E1
1,528514861E1	-9,370000000E0	-4,660000000E0	5,500000000E-1	1,047926524E1
1,529384862E1	-9,210000000E0	-4,530000000E0	6,300000000E-1	1,028308806E1
1,530355294E1	-8,690000000E0	-4,740000000E0	-7,000000000E-2	9,898919133E0
1,531396584E1	-8,230000000E0	-4,810000000E0	-4,600000000E-1	9,543615667E0
1,532452910E1	-7,960000000E0	-4,780000000E0	-6,000000000E-1	9,304300081E0
1,533438418E1	-7,250000000E0	-4,750000000E0	-8,500000000E-1	8,709047020E0
1,534344868E1	-6,710000000E0	-4,810000000E0	-1,270000000E0	8,353029391E0
1,535484646E1	-6,210000000E0	-4,660000000E0	-1,670000000E0	7,941574151E0
1,536474596E1	-5,620000000E0	-4,560000000E0	-1,670000000E0	7,427442359E0
1,537539799E1	-5,110000000E0	-4,570000000E0	-1,910000000E0	7,116537079E0
1,538550248E1	-4,560000000E0	-4,690000000E0	-2,140000000E0	6,882535870E0
1,539424456E1	-3,830000000E0	-4,560000000E0	-2,040000000E0	6,294767668E0
1,540345463E1	-3,240000000E0	-4,540000000E0	-1,910000000E0	5,895532207E0
1,541214371E1	-2,930000000E0	-4,570000000E0	-1,990000000E0	5,781859562E0
1,542121604E1	-2,420000000E0	-4,490000000E0	-1,910000000E0	5,446521826E0
1,543031660E1	-1,790000000E0	-4,600000000E0	-1,600000000E0	5,188843802E0
1,544006119E1	-1,120000000E0	-4,440000000E0	-1,400000000E0	4,788319121E0
1,544952628E1	-6,700000000E-1	-4,470000000E0	-1,300000000E0	4,703169144E0
1,545911394E1	8,000000000E-2	-4,350000000E0	-5,700000000E-1	4,387915223E0
1,547006460E1	6,000000000E-1	-4,290000000E0	-5,600000000E-1	4,367802651E0
1,547862868E1	1,090000000E0	-4,480000000E0	7,000000000E-2	4,611225434E0
1,548743887E1	1,410000000E0	-4,160000000E0	2,300000000E-1	4,398477009E0
1,549836227E1	1,970000000E0	-4,370000000E0	7,800000000E-1	4,856562570E0
1,550846417E1	2,470000000E0	-4,160000000E0	9,600000000E-1	4,932352380E0
1,551828084E1	2,550000000E0	-4,030000000E0	1,370000000E0	4,961884723E0
1,552758279E1	3,080000000E0	-3,880000000E0	1,390000000E0	5,145182213E0
1,553770975E1	3,280000000E0	-4,060000000E0	1,430000000E0	5,411737244E0
1,554687444E1	3,770000000E0	-3,770000000E0	1,780000000E0	5,620871818E0
1,555794952E1	3,870000000E0	-3,790000000E0	1,840000000E0	5,720716738E0
1,556892164E1	4,300000000E0	-3,800000000E0	1,640000000E0	5,968215814E0
1,557838719E1	4,330000000E0	-3,600000000E0	1,760000000E0	5,899703382E0
1,558696069E1	4,580000000E0	-3,390000000E0	1,530000000E0	5,899949152E0
1,559812370E1	4,730000000E0	-3,440000000E0	1,440000000E0	6,023296440E0
1,560751971E1	4,900000000E0	-3,020000000E0	8,800000000E-1	5,822782840E0
1,561799034E1	4,950000000E0	-3,110000000E0	1,010000000E0	5,932512115E0
1,562906481E1	4,830000000E0	-2,800000000E0	6,600000000E-1	5,621787972E0
1,563995989E1	4,920000000E0	-2,510000000E0	5,000000000E-1	5,545854307E0
1,565104739E1	4,710000000E0	-2,300000000E0	-3,000000000E-2	5,241660042E0
1,566101480E1	4,630000000E0	-1,710000000E0	-1,100000000E-1	4,936911990E0
1,567204168E1	4,760000000E0	-1,350000000E0	-1,100000000E-1	4,948959487E0
1,568192514E1	4,730000000E0	-1,040000000E0	-3,300000000E-1	4,854214664E0
1,569121660E1	4,570000000E0	-9,700000000E-1	-5,900000000E-1	4,708917073E0
1,570115950E1	4,370000000E0	-3,900000000E-1	-6,300000000E-1	4,432369569E0
1,571066568E1	4,270000000E0	-2,300000000E-1	-3,000000000E-1	4,286700363E0
1,572146712E1	4,150000000E0	1,300000000E-1	-4,000000000E-1	4,171258803E0
1,573246225E1	3,920000000E0	6,400000000E-1	-6,300000000E-1	4,021554426E0
1,574138575E1	3,700000000E0	7,200000000E-1	-4,400000000E-1	3,794996706E0
1,575037903E1	3,720000000E0	9,600000000E-1	-1,900000000E-1	3,846569901E0
1,576003001E1	3,380000000E0	1,560000000E0	-2,600000000E-1	3,731702025E0
1,576991987E1	3,400000000E0	1,610000000E0	-1,000000000E-2	3,761940988E0
1,578128884E1	3,170000000E0	2,010000000E0	2,200000000E-1	3,759973404E0
1,579261391E1	2,970000000E0	2,090000000E0	4,000000000E-2	3,631886562E0
1,580401503E1	2,800000000E0	2,130000000E0	2,100000000E-1	3,524343911E0
1,581470430E1	2,680000000E0	2,360000000E0	5,700000000E-1	3,616199663E0
1,582523598E1	2,510000000E0	2,310000000E0	1,700000000E-1	3,415420911E0
1,583454716E1	2,200000000E0	2,290000000E0	1,900000000E-1	3,181226179E0
1,584416512E1	2,020000000E0	2,250000000E0	5,100000000E-1	3,066431150E0
1,585267317E1	2,020000000E0	2,340000000E0	3,900000000E-1	3,115782406E0
1,586367204E1	1,960000000E0	2,200000000E0	2,000000000E-1	2,953235514E0
1,587300029E1	1,720000000E0	2,120000000E0	3,100000000E-1	2,747526160E0
1,588173813E1	1,410000000E0	2,230000000E0	-1,100000000E-1	2,640662796E0
1,589118491E1	1,300000000E0	2,040000000E0	-3,200000000E-1	2,440081966E0
1,590065442E1	1,350000000E0	1,840000000E0	-2,000000000E-2	2,282213837E0
1,591132637E1	1,350000000E0	1,490000000E0	-2,200000000E-1	2,022622061E0
1,591984349E1	1,310000000E0	1,510000000E0	-4,600000000E-1	2,051292276E0
1,592903353E1	1,040000000E0	1,320000000E0	-4,200000000E-1	1,732166274E0
1,594022294E1	9,900000000E-1	1,050000000E0	-7,400000000E-1	1,621789135E0
1,595128757E1	9,000000000E-1	7,500000000E-1	-6,700000000E-1	1,349592531E0
1,596167466E1	6,700000000E-1	5,700000000E-1	-5,600000000E-1	1,042784733E0
1,597185151E1	5,600000000E-1	4,800000000E-1	-4,200000000E-1	8,487638070E-1
1,598101937E1	6,800000000E-1	3,000000000E-1	-6,600000000E-1	9,939818912E-1
1,599214466E1	6,000000000E-1	3,700000000E-1	-7,400000000E-1	1,022007828E0
1,600292682E1	6,500000000E-1	1,000000000E-1	-6,600000000E-1	9,317188417E-1
1,601296562E1	3,500000000E-1	8,000000000E-2	-4,700000000E-1	5,914389233E-1
1,602194868E1	5,300000000E-1	9,000000000E-2	-2,400000000E-1	5,887274412E-1
1,603109619E1	2,700000000E-1	-6,000000000E-2	-1,200000000E-1	3,014962686E-1
1,604073408E1	3,100000000E-1	-2,700000000E-1	-4,000000000E-2	4,130375286E-1
1,605022745E1	3,100000000E-1	-2,500000000E-1	1,300000000E-1	4,189272013E-1
1,605891062E1	7,000000000E-2	-6,000000000E-2	1,000000000E-1	1,360147051E-1
1,606862975E1	3,000000000E-1	-3,700000000E-1	1,600000000E-1	5,024937811E-1
1,607847590E1	2,600000000E-1	-3,100000000E-1	1,700000000E-1	4,388621651E-1
1,608783714E1	2,200000000E-1	-1,700000000E-1	2,500000000E-1	3,738983819E-1
1,609749005E1	-1,500000000E-1	-8,000000000E-2	3,000000000E-1	3,448187930E-1
1,610698718E1	4,000000000E-2	-8,000000000E-2	4,400000000E-1	4,489988864E-1
1,611661769E1	2,000000000E-2	-9,000000000E-2	4,000000000E-2	1,004987562E-1
1,612697478E1	7,000000000E-2	-9,000000000E-2	2,600000000E-1	2,839013913E-1
1,613696677E1	-1,900000000E-1	-1,800000000E-1	-2,000000000E-2	2,624880950E-1
1,614605954E1	-2,200000000E-1	-2,700000000E-1	-1,000000000E-2	3,484250278E-1
1,615694532E1	2,000000000E-2	-5,000000000E-2	3,200000000E-1	3,244996148E-1
1,616698488E1	-1,700000000E-1	-2,300000000E-1	3,000000000E-2	2,875760769E-1
1,617685997E1	-2,200000000E-1	5,000000000E-2	8,000000000E-2	2,393741841E-1
1,618750000E1	-1,900000000E-1	-1,600000000E-1	-1,200000000E-1	2,758622845E-1
1,619825641E1	4,000000000E-2	-1,700000000E-1	1,000000000E-2	1,749285568E-1
1,620930359E1	1,000000000E-2	1,700000000E-1	-2,400000000E-1	2,942787794E-1
1,622023733E1	9,000000000E-2	-1,200000000E-1	4,000000000E-2	1,552417470E-1
1,623074438E1	1,100000000E-1	3,000000000E-2	2,300000000E-1	2,567099531E-1
1,624140777E1	-1,700000000E-1	-1,500000000E-1	9,000000000E-2	2,439262184E-1
1,625037915E1	1,500000000E-1	1,700000000E-1	8,000000000E-2	2,404163056E-1
1,626097691E1	1,300000000E-1	-1,700000000E-1	3,000000000E-2	2,161018278E-1
1,627024028E1	1,500000000E-1	7,000000000E-2	-9,000000000E-2	1,884144368E-1
1,627951379E1	9,000000000E-2	1,200000000E-1	1,400000000E-1	2,051828453E-1
1,628837418E1	-4,000000000E-2	-7,000000000E-2	-6,000000000E-2	1,004987562E-1
1,629806491E1	-9,000000000E-2	-1,700000000E-1	-8,000000000E-2	2,083266666E-1
1,630662454E1	1,400000000E-1	-1,600000000E-1	2,000000000E-2	2,135415650E-1
1,631709548E1	-3,000000000E-2	-1,500000000E-1	2,400000000E-1	2,846049894E-1
1,632783979E1	-0,000000000E0	9,000000000E-2	1,200000000E-1	1,500000000E-1
1,633866644E1	7,000000000E-2	1,000000000E-2	9,000000000E-2	1,144552314E-1
1,634755302E1	7,000000000E-2	1,400000000E-1	-1,900000000E-1	2,461706725E-1
1,635797628E1	7,000000000E-2	5,000000000E-2	1,500000000E-1	1,729161647E-1
1,636899116E1	4,000000000E-2	3,000000000E-2	-4,000000000E-2	6,403124237E-2
1,637759907E1	0,000000000E0	-1,000000000E-1	6,000000000E-2	1,166190379E-1
1,638667918E1	9,000000000E-2	-1,000000000E-1	3,000000000E-2	1,378404875E-1
1,639598251E1	-4,000000000E-2	1,700000000E-1	1,400000000E-1	2,238302929E-1
1,640586846E1	-8,000000000E-2	1,600000000E-1	-2,300000000E-1	2,913760457E-1
1,641488496E1	1,400000000E-1	-2,000000000E-2	-2,000000000E-1	2,449489743E-1
1,642500157E1	1,200000000E-1	1,000000000E-1	-1,100000000E-1	1,910497317E-1
1,643453343E1	8,000000000E-2	8,000000000E-2	-1,500000000E-1	1,878829423E-1
1,644499876E1	-1,200000000E-1	-8,000000000E-2	9,000000000E-2	1,700000000E-1
