time,ax,ay,az,aT
13:05:10:010,0.03,-0.04,0.01,0.05
13:05:10:022,0.02,-0.07,0.16,0.18
13:05:10:032,0.07,0.09,0.13,0.17
13:05:10:042,-0.07,0.12,0.09,0.17
13:05:10:051,-0.04,0.13,-0.24,0.28
13:05:10:062,-0.09,-0.12,-0.03,0.15
13:05:10:071,-0.07,-0.11,-0.13,0.18
13:05:10:082,-0.11,-0.01,0.01,0.11
13:05:10:092,0.14,0.16,-0.17,0.27
13:05:10:102,0.14,0.04,-0.18,0.23
13:05:10:112,-0.05,0.04,0.23,0.24
13:05:10:121,0.07,-0.06,0.19,0.21
13:05:10:130,-0.00,0.17,-0.20,0.26
13:05:10:140,-0.08,-0.11,0.16,0.21
13:05:10:150,-0.05,0.02,-0.22,0.23
13:05:10:160,0.16,0.06,-0.08,0.19
13:05:10:172,-0.06,0.11,0.25,0.28
13:05:10:183,0.03,0.11,0.22,0.25
13:05:10:193,0.16,-0.04,-0.02,0.17
13:05:10:205,-0.07,-0.08,0.10,0.15
13:05:10:214,0.11,0.17,-0.06,0.21
13:05:10:223,-0.14,0.02,0.17,0.22
13:05:10:233,0.08,-0.08,-0.09,0.14
13:05:10:242,0.11,-0.13,-0.15,0.23
13:05:10:250,0.12,0.11,-0.18,0.24
13:05:10:260,0.17,0.12,0.07,0.22
13:05:10:270,0.07,0.02,0.03,0.08
13:05:10:281,0.17,-0.04,0.20,0.27
13:05:10:292,-0.08,0.06,-0.18,0.21
13:05:10:302,0.01,0.17,0.15,0.23
13:05:10:312,-0.10,0.03,0.22,0.24
13:05:10:321,-0.15,0.10,0.12,0.22
13:05:10:330,-0.02,0.13,-0.19,0.23
13:05:10:339,0.08,0.09,-0.17,0.21
13:05:10:349,0.10,-0.00,-0.21,0.23
13:05:10:358,-0.17,-0.11,-0.08,0.22
13:05:10:368,0.15,0.07,0.13,0.21
13:05:10:377,-0.09,0.12,-0.18,0.23
13:05:10:388,-0.07,0.16,-0.03,0.18
13:05:10:397,0.12,-0.12,-0.23,0.29
13:05:10:406,0.14,-0.14,0.09,0.22
13:05:10:417,0.08,0.05,-0.20,0.22
13:05:10:427,-0.06,0.11,0.15,0.20
13:05:10:438,-0.01,-0.15,0.06,0.16
13:05:10:448,0.12,0.04,-0.15,0.20
13:05:10:459,-0.05,-0.08,0.10,0.14
13:05:10:468,0.11,0.17,-0.08,0.22
13:05:10:478,0.10,-0.05,0.01,0.11
13:05:10:488,-0.01,-0.15,0.03,0.15
13:05:10:499,0.14,0.10,-0.11,0.20
13:05:10:509,-0.04,-0.07,-0.04,0.09
13:05:10:519,0.09,-0.03,0.14,0.17
13:05:10:528,0.05,-0.13,0.18,0.23
13:05:10:537,-0.06,-0.06,0.17,0.19
13:05:10:547,0.01,-0.13,0.03,0.13
13:05:10:556,0.04,-0.08,0.19,0.21
13:05:10:567,0.01,0.03,-0.18,0.18
13:05:10:576,-0.14,-0.07,0.24,0.29
13:05:10:588,0.17,0.06,-0.23,0.29
13:05:10:598,0.16,0.14,0.20,0.29
13:05:10:608,-0.16,0.03,0.15,0.22
13:05:10:619,0.16,-0.16,-0.05,0.23
13:05:10:629,0.01,0.16,0.15,0.22
13:05:10:638,-0.13,-0.11,0.23,0.29
13:05:10:648,0.11,-0.05,-0.17,0.21
13:05:10:657,-0.02,0.01,0.07,0.07
13:05:10:667,0.07,0.04,-0.25,0.26
13:05:10:676,0.11,-0.06,0.08,0.15
13:05:10:687,0.01,-0.02,-0.22,0.22
13:05:10:696,-0.16,0.04,0.08,0.18
13:05:10:707,0.11,-0.02,-0.24,0.26
13:05:10:716,0.07,-0.08,-0.05,0.12
13:05:10:727,0.14,-0.03,0.18,0.23
13:05:10:738,-0.08,-0.04,-0.10,0.13
13:05:10:747,0.10,-0.07,0.23,0.26
13:05:10:758,0.13,0.04,-0.01,0.14
13:05:10:769,-0.05,0.00,-0.16,0.17
13:05:10:780,-0.03,-0.03,0.22,0.22
13:05:10:791,-0.06,0.07,-0.17,0.19
13:05:10:800,-0.17,0.11,0.05,0.21
13:05:10:809,-0.09,0.05,0.22,0.24
13:05:10:820,-0.06,-0.06,0.22,0.24
13:05:10:830,-0.14,0.15,0.03,0.21
13:05:10:839,0.09,-0.14,-0.14,0.22
13:05:10:850,-0.03,0.11,0.00,0.11
13:05:10:861,0.02,-0.03,-0.10,0.11
13:05:10:871,-0.08,-0.04,-0.09,0.13
13:05:10:881,-0.05,0.12,-0.09,0.16
13:05:10:890,0.09,0.05,-0.15,0.18
13:05:10:900,-0.01,0.17,-0.23,0.29
13:05:10:908,0.03,0.13,0.13,0.19
13:05:10:919,-0.03,-0.13,-0.24,0.27
13:05:10:929,0.02,0.00,0.04,0.04
13:05:10:939,0.14,0.09,-0.07,0.18
13:05:10:949,-0.08,-0.15,0.08,0.19
13:05:10:960,0.01,0.01,0.04,0.04
13:05:10:968,0.07,0.17,-0.01,0.18
13:05:10:978,-0.14,-0.09,0.14,0.22
13:05:10:986,0.16,-0.13,0.04,0.21
13:05:10:995,-0.00,-0.07,0.20,0.21
13:05:11:007,-0.09,-0.05,0.04,0.11
13:05:11:017,0.09,-0.07,0.19,0.22
13:05:11:027,0.11,-0.02,0.18,0.21
13:05:11:037,0.05,0.12,0.10,0.16
13:05:11:048,0.15,0.01,-0.09,0.18
13:05:11:058,-0.14,0.03,-0.01,0.14
13:05:11:068,0.01,-0.14,-0.21,0.25
13:05:11:078,0.09,-0.15,0.11,0.21
13:05:11:088,0.15,0.16,0.07,0.23
13:05:11:098,0.05,-0.05,0.16,0.17
13:05:11:109,0.04,0.16,-0.21,0.27
13:05:11:120,-0.04,-0.06,-0.19,0.20
13:05:11:129,0.03,0.05,0.07,0.09
13:05:11:140,0.02,0.06,0.12,0.14
13:05:11:149,0.14,-0.14,-0.21,0.29
13:05:11:160,0.11,-0.15,-0.23,0.30
13:05:11:170,0.08,-0.02,-0.09,0.12
13:05:11:179,0.15,-0.13,-0.08,0.21
13:05:11:189,-0.15,-0.07,-0.22,0.28
13:05:11:200,0.09,-0.11,-0.20,0.25
13:05:11:209,-0.01,-0.07,-0.15,0.17
13:05:11:219,0.09,-0.02,-0.24,0.26
13:05:11:230,-0.07,-0.07,-0.18,0.21
13:05:11:240,-0.01,-0.06,-0.24,0.25
13:05:11:251,0.11,-0.00,-0.07,0.13
13:05:11:260,-0.16,0.06,0.12,0.21
13:05:11:269,-0.07,-0.16,0.08,0.19
13:05:11:278,-0.00,0.17,0.05,0.18
13:05:11:288,0.12,-0.02,-0.02,0.12
13:05:11:297,-0.08,0.15,-0.16,0.23
13:05:11:308,0.11,-0.17,-0.23,0.31
13:05:11:319,-0.09,-0.15,-0.16,0.24
13:05:11:328,-0.07,-0.14,0.22,0.27
13:05:11:337,0.02,0.14,0.16,0.21
13:05:11:349,0.05,-0.03,0.03,0.07
13:05:11:359,0.13,0.12,0.06,0.19
13:05:11:370,0.13,0.07,0.12,0.19
13:05:11:380,-0.09,-0.14,0.16,0.23
13:05:11:390,0.09,-0.05,-0.13,0.17
13:05:11:401,0.05,-0.06,0.15,0.17
13:05:11:412,-0.04,-0.02,0.07,0.08
13:05:11:422,0.10,0.09,-0.11,0.17
13:05:11:432,0.14,-0.15,-0.11,0.23
13:05:11:443,-0.01,0.15,-0.16,0.22
13:05:11:453,0.15,-0.01,0.02,0.15
13:05:11:464,-0.13,-0.05,0.23,0.27
13:05:11:473,-0.12,0.07,0.14,0.20
13:05:11:483,0.09,-0.08,-0.17,0.21
13:05:11:493,-0.07,0.07,-0.19,0.21
13:05:11:504,0.05,-0.01,-0.11,0.12
13:05:11:513,0.06,0.06,-0.18,0.20
13:05:11:524,-0.03,0.01,-0.22,0.22
13:05:11:535,0.22,0.04,0.05,0.23
13:05:11:546,0.25,0.28,-0.20,0.43
13:05:11:556,0.07,0.19,-0.11,0.23
13:05:11:567,0.13,0.12,-0.27,0.32
13:05:11:577,0.34,0.22,0.04,0.41
13:05:11:587,0.39,0.23,-0.17,0.48
13:05:11:596,0.38,-0.07,-0.40,0.56
13:05:11:604,0.26,0.19,-0.07,0.33
13:05:11:613,0.21,-0.20,-0.30,0.42
13:05:11:625,0.23,-0.05,-0.17,0.29
13:05:11:636,0.12,-0.23,-0.19,0.32
13:05:11:645,0.21,-0.28,-0.02,0.35
13:05:11:655,0.09,-0.25,-0.03,0.27
13:05:11:665,0.03,-0.25,0.07,0.26
13:05:11:675,0.05,-0.35,0.08,0.36
13:05:11:686,-0.12,-0.30,0.58,0.66
13:05:11:695,-0.05,-0.24,0.28,0.37
13:05:11:706,-0.06,-0.55,0.40,0.68
13:05:11:716,-0.17,-0.56,0.52,0.78
13:05:11:727,-0.18,-0.46,0.40,0.64
13:05:11:737,-0.34,-0.57,0.46,0.81
13:05:11:746,-0.55,-0.64,0.53,1.00
13:05:11:755,-0.59,-0.60,0.58,1.02
13:05:11:765,-0.91,-0.58,0.50,1.19
13:05:11:775,-0.97,-0.55,0.32,1.16
13:05:11:786,-1.36,-0.59,0.36,1.53
13:05:11:797,-1.50,-0.69,0.27,1.67
13:05:11:806,-1.53,-0.91,-0.08,1.78
13:05:11:817,-1.91,-0.78,-0.22,2.07
13:05:11:828,-2.20,-0.91,-0.14,2.38
13:05:11:839,-2.37,-1.17,-0.34,2.66
13:05:11:849,-2.79,-0.97,-0.19,2.96
13:05:11:860,-2.89,-1.29,-0.63,3.23
13:05:11:869,-3.39,-1.21,-0.36,3.62
13:05:11:878,-3.52,-1.27,-0.44,3.77
13:05:11:886,-3.75,-1.26,-0.46,3.98
13:05:11:895,-3.94,-1.42,-0.06,4.19
13:05:11:905,-3.91,-1.39,-0.29,4.16
13:05:11:914,-4.43,-1.79,0.09,4.78
13:05:11:924,-4.54,-1.89,0.25,4.92
13:05:11:933,-4.61,-1.91,0.41,5.01
13:05:11:943,-4.73,-1.87,0.10,5.09
13:05:11:952,-4.84,-2.01,0.21,5.24
13:05:11:962,-5.10,-2.23,0.26,5.57
13:05:11:971,-5.24,-2.27,0.41,5.73
13:05:11:980,-5.08,-2.23,0.71,5.59
13:05:11:992,-5.38,-2.41,0.54,5.92
13:05:12:002,-5.40,-2.38,0.21,5.90
13:05:12:013,-5.30,-2.60,0.05,5.90
13:05:12:023,-5.13,-2.56,0.19,5.74
13:05:12:034,-4.85,-2.71,-0.09,5.56
13:05:12:043,-4.78,-2.89,-0.60,5.62
13:05:12:053,-4.65,-3.04,-0.56,5.58
13:05:12:061,-4.47,-3.18,-0.96,5.57
13:05:12:072,-4.12,-3.26,-1.16,5.38
13:05:12:084,-3.80,-3.34,-1.49,5.27
13:05:12:095,-3.52,-3.45,-1.22,5.08
13:05:12:103,-3.28,-3.59,-1.57,5.11
13:05:12:113,-2.86,-3.57,-1.54,4.83
13:05:12:122,-2.25,-3.78,-1.74,4.73
13:05:12:131,-1.90,-3.59,-1.59,4.36
13:05:12:142,-1.35,-3.79,-1.31,4.23
13:05:12:153,-1.07,-4.03,-1.03,4.29
13:05:12:162,-0.28,-4.02,-0.70,4.09
13:05:12:173,0.12,-4.12,-0.67,4.18
13:05:12:184,0.89,-4.22,-0.29,4.32
13:05:12:193,1.26,-4.16,0.13,4.35
13:05:12:204,1.82,-4.33,0.49,4.72
13:05:12:215,2.52,-4.39,1.15,5.19
13:05:12:224,2.93,-4.24,1.22,5.30
13:05:12:234,3.47,-4.38,1.51,5.79
13:05:12:244,3.81,-4.33,1.80,6.04
13:05:12:255,4.46,-4.43,1.97,6.59
13:05:12:264,4.78,-4.43,1.92,6.79
13:05:12:274,5.13,-4.51,1.74,7.05
13:05:12:284,5.57,-4.46,2.00,7.41
13:05:12:295,6.09,-4.39,1.49,7.65
13:05:12:306,6.38,-4.34,1.59,7.88
13:05:12:316,6.84,-4.04,1.01,8.01
13:05:12:327,6.89,-4.03,0.66,8.01
13:05:12:338,7.10,-3.74,0.42,8.04
13:05:12:349,7.64,-3.32,0.23,8.33
13:05:12:358,7.53,-2.81,-0.31,8.04
13:05:12:366,7.69,-2.39,-0.50,8.07
13:05:12:377,7.67,-1.94,-0.76,7.95
13:05:12:386,7.70,-1.48,-1.06,7.91
13:05:12:396,7.78,-0.73,-1.06,7.89
13:05:12:407,7.89,0.10,-0.74,7.93
13:05:12:417,7.57,0.59,-0.66,7.62
13:05:12:426,7.78,1.42,-0.87,7.96
13:05:12:436,7.73,2.17,-0.34,8.04
13:05:12:447,7.44,2.83,-0.54,7.98
13:05:12:456,7.25,3.38,0.05,8.00
13:05:12:465,7.05,4.21,-0.02,8.21
13:05:12:474,6.88,4.66,0.42,8.32
13:05:12:485,6.74,5.33,0.67,8.62
13:05:12:496,6.71,5.96,0.89,9.02
13:05:12:505,6.19,6.49,1.25,9.06
13:05:12:515,6.21,6.47,1.00,9.02
13:05:12:525,5.91,6.62,0.78,8.91
13:05:12:534,5.46,6.84,0.71,8.78
13:05:12:543,5.24,6.96,0.83,8.75
13:05:12:553,5.25,6.54,0.26,8.39
13:05:12:563,5.00,6.53,-0.12,8.23
13:05:12:571,4.68,6.06,-0.39,7.67
13:05:12:582,4.63,5.83,-0.44,7.46
13:05:12:592,4.19,5.22,-1.15,6.79
13:05:12:602,4.07,4.92,-1.68,6.60
13:05:12:611,3.79,4.34,-1.75,6.02
13:05:12:621,3.77,3.81,-2.24,5.81
13:05:12:630,3.40,3.13,-2.37,5.19
13:05:12:639,3.26,2.51,-2.30,4.71
13:05:12:648,3.29,2.01,-2.51,4.60
13:05:12:657,3.03,1.52,-2.58,4.26
13:05:12:668,2.86,0.84,-2.21,3.71
13:05:12:677,2.69,0.36,-2.23,3.51
13:05:12:687,2.44,0.02,-1.95,3.12
13:05:12:698,2.05,-0.50,-1.30,2.48
13:05:12:708,1.97,-0.76,-0.75,2.24
13:05:12:717,1.53,-1.16,-0.39,1.96
13:05:12:727,1.31,-1.41,-0.03,1.92
13:05:12:738,1.04,-1.59,0.60,1.99
13:05:12:748,0.62,-1.69,0.90,2.01
13:05:12:758,0.25,-1.91,1.50,2.44
13:05:12:767,0.12,-2.18,2.12,3.04
13:05:12:778,-0.26,-2.10,2.30,3.13
13:05:12:789,-0.83,-2.30,2.70,3.64
13:05:12:800,-1.30,-2.15,2.70,3.69
13:05:12:810,-1.85,-2.39,2.61,3.99
13:05:12:820,-2.20,-2.28,2.60,4.10
13:05:12:828,-2.61,-2.47,2.25,4.24
13:05:12:838,-2.99,-2.29,2.03,4.28
13:05:12:849,-3.87,-2.64,1.55,4.93
13:05:12:858,-4.05,-2.51,1.11,4.89
13:05:12:868,-4.52,-2.58,0.92,5.29
13:05:12:878,-5.30,-2.82,0.15,6.01
13:05:12:888,-5.75,-2.80,0.18,6.40
13:05:12:900,-6.32,-3.01,-0.22,7.00
13:05:12:909,-6.85,-3.12,-0.53,7.55
13:05:12:918,-7.44,-3.21,-0.91,8.15
13:05:12:929,-7.87,-3.42,-1.06,8.65
13:05:12:939,-8.28,-3.30,-1.12,8.98
13:05:12:950,-9.02,-3.63,-1.03,9.78
13:05:12:961,-9.36,-3.72,-0.99,10.12
13:05:12:972,-9.93,-3.89,-0.46,10.67
13:05:12:983,-10.00,-3.77,-0.12,10.69
13:05:12:994,-10.31,-3.99,0.00,11.06
13:05:13:004,-10.78,-4.12,0.46,11.55
13:05:13:014,-10.71,-4.21,0.46,11.52
13:05:13:023,-10.82,-4.23,0.95,11.66
13:05:13:034,-11.08,-4.42,1.19,11.99
13:05:13:045,-10.92,-4.58,1.14,11.90
13:05:13:056,-10.78,-4.77,1.29,11.86
13:05:13:065,-10.76,-4.81,1.09,11.84
13:05:13:075,-10.50,-4.74,0.91,11.56
13:05:13:085,-10.08,-4.99,0.55,11.26
13:05:13:093,-9.92,-5.11,0.08,11.16
13:05:13:105,-9.55,-5.07,-0.30,10.82
13:05:13:115,-9.26,-5.45,-0.36,10.75
13:05:13:124,-8.76,-5.54,-1.10,10.42
13:05:13:134,-7.95,-5.36,-1.27,9.67
13:05:13:145,-7.35,-5.39,-1.95,9.32
13:05:13:155,-6.71,-5.77,-1.97,9.07
13:05:13:166,-6.05,-5.86,-2.16,8.70
13:05:13:177,-5.24,-5.93,-2.51,8.30
13:05:13:187,-4.53,-5.78,-2.85,7.88
13:05:13:196,-3.77,-5.98,-2.45,7.48
13:05:13:206,-3.07,-5.87,-2.41,7.05
13:05:13:218,-2.09,-5.88,-1.91,6.53
13:05:13:227,-1.38,-6.13,-1.93,6.57
13:05:13:237,-0.46,-5.85,-1.40,6.03
13:05:13:248,0.26,-6.08,-0.52,6.11
13:05:13:260,1.08,-5.98,0.05,6.08
13:05:13:269,1.78,-6.05,0.58,6.33
13:05:13:277,2.47,-6.05,0.85,6.59
13:05:13:289,3.53,-6.01,1.50,7.13
13:05:13:298,4.09,-6.13,2.01,7.64
13:05:13:307,4.69,-5.96,2.20,7.90
13:05:13:317,5.22,-5.98,2.19,8.23
13:05:13:327,5.66,-5.91,2.39,8.53
13:05:13:337,6.35,-5.92,2.37,9.00
13:05:13:347,6.93,-5.81,2.37,9.35
13:05:13:358,7.29,-5.58,2.15,9.43
13:05:13:367,7.67,-5.36,2.10,9.59
13:05:13:378,7.94,-5.44,1.86,9.80
13:05:13:386,8.10,-5.01,1.65,9.67
13:05:13:396,8.49,-4.81,1.01,9.81
13:05:13:405,8.60,-4.69,0.52,9.81
13:05:13:414,8.68,-4.33,0.50,9.71
13:05:13:424,8.74,-3.58,0.13,9.45
13:05:13:435,8.94,-3.22,-0.21,9.50
13:05:13:444,8.81,-2.66,-0.96,9.25
13:05:13:453,8.87,-1.89,-0.86,9.11
13:05:13:465,8.67,-1.06,-0.98,8.79
13:05:13:476,8.72,-0.15,-1.05,8.78
13:05:13:487,8.42,0.60,-1.14,8.52
13:05:13:496,8.29,1.26,-0.63,8.41
13:05:13:506,8.26,2.03,-0.61,8.53
13:05:13:515,7.99,2.70,-0.63,8.46
13:05:13:524,7.79,3.51,-0.22,8.55
13:05:13:533,7.44,4.22,0.22,8.56
13:05:13:543,7.37,4.57,0.25,8.68
13:05:13:551,6.98,5.20,0.76,8.74
13:05:13:560,6.95,5.65,0.67,8.98
13:05:13:572,6.62,6.02,0.96,9.00
13:05:13:581,6.28,6.52,0.96,9.10
13:05:13:591,6.10,6.86,0.87,9.22
13:05:13:601,5.73,6.74,1.15,8.92
13:05:13:610,5.57,6.91,0.71,8.90
13:05:13:620,5.11,6.88,0.66,8.60
13:05:13:630,5.19,6.49,0.42,8.32
13:05:13:640,4.89,6.43,-0.26,8.08
13:05:13:650,4.43,6.00,-0.83,7.50
13:05:13:660,4.25,5.51,-1.01,7.03
13:05:13:670,4.17,4.87,-1.56,6.60
13:05:13:681,4.01,4.29,-1.65,6.10
13:05:13:692,3.58,3.57,-2.36,5.58
13:05:13:701,3.69,3.30,-2.30,5.46
13:05:13:710,3.30,2.71,-2.79,5.10
13:05:13:719,3.36,1.92,-2.73,4.74
13:05:13:730,3.04,1.39,-2.72,4.31
13:05:13:742,2.72,0.65,-2.20,3.56
13:05:13:751,2.48,0.36,-2.07,3.25
13:05:13:762,2.13,-0.24,-1.62,2.69
13:05:13:771,1.91,-0.49,-1.49,2.47
13:05:13:781,1.85,-0.92,-0.87,2.24
13:05:13:791,1.63,-1.44,-0.04,2.18
13:05:13:802,1.35,-1.61,0.45,2.15
13:05:13:811,0.89,-1.70,0.98,2.15
13:05:13:821,0.78,-1.72,1.33,2.31
13:05:13:831,0.19,-2.02,1.63,2.60
13:05:13:840,0.09,-2.15,2.31,3.16
13:05:13:849,-0.28,-2.17,2.24,3.13
13:05:13:859,-0.96,-2.23,2.38,3.40
13:05:13:870,-1.20,-2.31,2.69,3.74
13:05:13:881,-1.76,-2.30,2.35,3.73
13:05:13:892,-2.29,-2.40,2.51,4.16
13:05:13:902,-2.79,-2.38,2.20,4.28
13:05:13:913,-3.45,-2.32,1.67,4.48
13:05:13:924,-4.05,-2.39,1.30,4.88
13:05:13:935,-4.67,-2.76,0.84,5.49
13:05:13:945,-5.08,-2.71,0.18,5.76
13:05:13:955,-5.58,-2.76,-0.20,6.23
13:05:13:964,-6.33,-3.03,-0.39,7.03
13:05:13:974,-6.69,-3.00,-0.89,7.39
13:05:13:983,-7.34,-3.21,-1.01,8.07
13:05:13:995,-7.94,-3.28,-1.08,8.66
13:05:14:005,-8.43,-3.40,-1.01,9.15
13:05:14:015,-8.73,-3.34,-1.03,9.40
13:05:14:026,-9.31,-3.67,-1.06,10.06
13:05:14:035,-9.67,-3.67,-0.60,10.36
13:05:14:045,-10.07,-3.77,-0.34,10.76
13:05:14:054,-10.26,-3.96,-0.16,11.00
13:05:14:065,-10.39,-3.89,0.19,11.10
13:05:14:075,-10.86,-4.22,0.26,11.65
13:05:14:086,-10.85,-4.35,0.84,11.72
13:05:14:095,-10.89,-4.33,0.90,11.75
13:05:14:106,-11.10,-4.52,0.85,12.02
13:05:14:117,-10.97,-4.56,1.16,11.94
13:05:14:127,-10.64,-4.88,1.09,11.76
13:05:14:139,-10.41,-5.00,0.91,11.58
13:05:14:149,-10.22,-4.90,0.64,11.35
13:05:14:158,-10.16,-5.12,0.50,11.39
13:05:14:169,-9.56,-5.06,0.10,10.82
13:05:14:180,-9.20,-5.38,-0.41,10.67
13:05:14:189,-8.83,-5.46,-1.08,10.44
13:05:14:200,-8.16,-5.33,-1.45,9.85
13:05:14:209,-7.46,-5.58,-1.44,9.43
13:05:14:219,-6.84,-5.74,-2.08,9.17
13:05:14:230,-6.28,-5.77,-2.27,8.83
13:05:14:239,-5.77,-5.63,-2.69,8.50
13:05:14:249,-4.69,-5.87,-2.57,7.94
13:05:14:258,-4.01,-5.81,-2.55,7.51
13:05:14:269,-3.28,-5.76,-2.34,7.03
13:05:14:279,-2.59,-5.88,-2.01,6.73
13:05:14:289,-1.69,-5.86,-1.94,6.40
13:05:14:300,-0.77,-5.81,-1.57,6.07
13:05:14:310,-0.04,-6.06,-1.16,6.17
13:05:14:320,0.77,-5.87,-0.50,5.94
13:05:14:329,1.41,-5.98,0.04,6.14
13:05:14:339,2.21,-6.10,0.86,6.54
13:05:14:349,2.87,-6.11,1.16,6.85
13:05:14:361,3.74,-6.02,1.76,7.30
13:05:14:369,4.56,-6.07,2.13,7.89
13:05:14:379,4.85,-5.81,2.07,7.85
13:05:14:390,5.71,-5.85,2.39,8.52
13:05:14:400,6.29,-5.98,2.63,9.07
13:05:14:409,6.59,-5.64,2.38,8.99
13:05:14:419,7.12,-5.66,2.30,9.38
13:05:14:428,7.36,-5.61,2.41,9.56
13:05:14:437,7.84,-5.58,2.11,9.85
13:05:14:448,8.19,-5.24,1.44,9.83
13:05:14:457,8.43,-4.85,1.06,9.78
13:05:14:467,8.54,-4.64,1.01,9.77
13:05:14:478,8.87,-4.26,0.36,9.85
13:05:14:489,8.94,-3.71,-0.14,9.68
13:05:14:499,8.89,-3.18,-0.30,9.45
13:05:14:510,8.94,-2.49,-0.63,9.30
13:05:14:519,8.75,-1.98,-0.67,9.00
13:05:14:530,8.91,-1.25,-1.24,9.08
13:05:14:541,8.68,-0.47,-0.93,8.74
13:05:14:551,8.61,0.65,-1.01,8.69
13:05:14:562,8.22,1.19,-0.96,8.36
13:05:14:571,8.27,2.05,-0.62,8.54
13:05:14:582,7.74,2.95,-0.60,8.30
13:05:14:591,7.66,3.63,-0.26,8.48
13:05:14:602,7.25,4.51,0.04,8.54
13:05:14:612,7.03,4.87,0.60,8.57
13:05:14:622,6.97,5.38,0.85,8.85
13:05:14:632,6.44,5.89,0.81,8.76
13:05:14:642,6.29,6.37,0.95,9.00
13:05:14:652,5.97,6.55,1.20,8.94
13:05:14:663,5.92,6.78,0.94,9.05
13:05:14:673,5.40,6.90,0.77,8.80
13:05:14:684,5.22,6.70,0.80,8.53
13:05:14:694,5.14,6.63,0.25,8.39
13:05:14:704,4.86,6.13,-0.12,7.82
13:05:14:715,4.63,5.93,-0.53,7.54
13:05:14:724,4.54,5.68,-1.18,7.37
13:05:14:733,4.00,5.21,-1.41,6.72
13:05:14:744,4.00,4.47,-1.65,6.22
13:05:14:755,3.83,4.01,-2.06,5.92
13:05:14:765,3.63,3.12,-2.20,5.27
13:05:14:775,3.42,2.49,-2.66,5.00
13:05:14:786,2.99,1.90,-2.63,4.41
13:05:14:796,2.79,1.32,-2.68,4.09
13:05:14:806,2.83,0.88,-2.54,3.90
13:05:14:815,2.58,0.27,-2.34,3.49
13:05:14:824,2.24,-0.31,-1.95,2.99
13:05:14:834,1.94,-0.49,-1.56,2.54
13:05:14:843,1.87,-1.02,-0.93,2.32
13:05:14:855,1.41,-1.14,-0.33,1.84
13:05:14:864,1.37,-1.62,0.38,2.16
13:05:14:874,0.92,-1.78,0.92,2.20
13:05:14:884,0.77,-1.98,1.29,2.49
13:05:14:894,0.16,-2.03,1.81,2.72
13:05:14:905,-0.12,-2.01,2.13,2.93
13:05:14:917,-0.71,-2.19,2.34,3.28
13:05:14:926,-0.88,-2.31,2.58,3.57
13:05:14:936,-1.37,-2.17,2.68,3.71
13:05:14:947,-2.01,-2.17,2.76,4.05
13:05:14:957,-2.24,-2.45,2.52,4.17
13:05:14:967,-2.88,-2.41,1.86,4.19
13:05:14:976,-3.45,-2.60,1.85,4.70
13:05:14:987,-3.86,-2.71,1.14,4.85
13:05:14:996,-4.54,-2.66,1.01,5.36
13:05:15:006,-4.89,-2.78,0.69,5.67
13:05:15:016,-5.61,-2.66,0.24,6.21
13:05:15:025,-5.90,-3.05,-0.42,6.65
13:05:15:036,-6.82,-2.94,-0.62,7.45
13:05:15:047,-7.16,-3.02,-1.00,7.83
13:05:15:057,-7.82,-3.24,-0.92,8.51
13:05:15:068,-8.30,-3.33,-0.96,8.99
13:05:15:078,-8.68,-3.53,-0.92,9.42
13:05:15:087,-9.29,-3.64,-1.01,10.03
13:05:15:098,-9.63,-3.82,-0.71,10.38
13:05:15:107,-9.99,-3.63,-0.69,10.65
13:05:15:116,-10.07,-4.05,-0.07,10.85
13:05:15:127,-10.53,-4.14,0.25,11.32
13:05:15:138,-10.66,-4.06,0.11,11.41
13:05:15:146,-10.86,-4.25,0.60,11.68
13:05:15:157,-11.00,-4.36,0.92,11.87
13:05:15:168,-10.80,-4.56,0.85,11.75
13:05:15:178,-10.92,-4.72,0.83,11.93
13:05:15:186,-10.80,-4.60,0.81,11.77
13:05:15:197,-10.63,-4.95,1.07,11.77
13:05:15:206,-10.39,-4.98,0.57,11.54
13:05:15:217,-10.31,-4.93,0.49,11.44
13:05:15:226,-10.06,-5.19,0.38,11.33
13:05:15:237,-9.51,-5.06,-0.38,10.78
13:05:15:246,-9.20,-5.42,-0.44,10.69
13:05:15:256,-8.76,-5.38,-1.00,10.33
13:05:15:266,-7.89,-5.46,-1.45,9.70
13:05:15:276,-7.36,-5.55,-1.80,9.39
13:05:15:285,-6.85,-5.52,-2.18,9.06
13:05:15:297,-6.17,-5.85,-2.22,8.79
13:05:15:306,-5.28,-5.73,-2.47,8.17
13:05:15:316,-4.65,-5.70,-2.67,7.83
13:05:15:325,-4.06,-6.00,-2.77,7.76
13:05:15:334,-3.10,-5.87,-2.46,7.08
13:05:15:343,-2.33,-5.94,-1.99,6.68
13:05:15:354,-1.46,-5.98,-1.68,6.38
13:05:15:365,-0.64,-5.96,-1.64,6.21
13:05:15:374,-0.01,-5.94,-1.05,6.03
13:05:15:383,0.62,-5.93,-0.52,5.98
13:05:15:392,1.48,-5.86,-0.03,6.04
13:05:15:403,2.13,-5.94,0.41,6.32
13:05:15:413,3.03,-5.81,0.97,6.62
13:05:15:424,3.63,-5.91,1.67,7.13
13:05:15:435,4.31,-6.02,2.17,7.72
13:05:15:445,5.20,-6.03,2.46,8.33
13:05:15:456,5.70,-6.01,2.64,8.69
13:05:15:467,6.40,-5.89,2.70,9.11
13:05:15:476,6.89,-5.88,2.32,9.35
13:05:15:486,7.31,-5.60,2.29,9.49
13:05:15:495,7.62,-5.48,2.12,9.62
13:05:15:505,8.03,-5.34,1.76,9.80
13:05:15:514,8.22,-5.23,1.50,9.86
13:05:15:524,8.55,-4.93,1.10,9.93
13:05:15:534,8.74,-4.65,0.62,9.92
13:05:15:543,8.56,-4.05,0.08,9.47
13:05:15:552,8.73,-3.95,0.15,9.58
13:05:15:561,8.82,-3.36,-0.12,9.44
13:05:15:571,8.79,-2.72,-0.58,9.22
13:05:15:582,8.73,-2.11,-1.00,9.04
13:05:15:591,8.92,-1.27,-1.04,9.07
13:05:15:600,8.53,-0.73,-0.86,8.60
13:05:15:609,8.47,-0.07,-1.00,8.53
13:05:15:619,8.52,0.60,-0.86,8.58
13:05:15:627,8.18,1.36,-0.71,8.32
13:05:15:637,7.99,2.25,-0.36,8.31
13:05:15:646,8.04,2.83,-0.28,8.53
13:05:15:655,7.76,3.43,-0.29,8.49
13:05:15:666,7.38,4.37,0.23,8.58
13:05:15:675,7.04,4.84,0.69,8.57
13:05:15:686,6.81,5.61,0.54,8.84
13:05:15:695,6.81,6.01,0.69,9.11
13:05:15:705,6.48,6.39,0.80,9.14
13:05:15:716,5.94,6.75,0.85,9.03
13:05:15:725,5.93,6.87,0.85,9.12
13:05:15:736,5.53,6.77,1.00,8.80
13:05:15:747,5.37,6.80,0.65,8.69
13:05:15:758,4.98,6.51,0.39,8.21
13:05:15:767,4.72,6.27,-0.02,7.85
13:05:15:777,4.44,5.91,-0.55,7.41
13:05:15:787,4.32,5.44,-0.77,6.99
13:05:15:798,4.29,4.95,-1.54,6.73
13:05:15:807,4.12,4.45,-1.80,6.33
13:05:15:819,3.82,3.94,-2.16,5.90
13:05:15:830,3.63,3.11,-2.31,5.31
13:05:15:839,3.26,2.49,-2.42,4.76
13:05:15:848,3.13,2.04,-2.58,4.54
13:05:15:857,3.16,1.45,-2.54,4.31
13:05:15:868,2.96,1.00,-2.55,4.03
13:05:15:879,2.54,0.24,-2.11,3.31
13:05:15:890,2.40,-0.19,-1.58,2.88
13:05:15:901,2.21,-0.75,-1.32,2.68
13:05:15:911,1.96,-1.02,-0.63,2.30
13:05:15:922,1.43,-1.20,-0.18,1.88
13:05:15:932,1.26,-1.64,0.39,2.10
13:05:15:943,0.81,-1.76,1.04,2.20
13:05:15:954,0.49,-1.93,1.31,2.38
13:05:15:963,0.15,-2.15,1.74,2.77
13:05:15:973,-0.30,-2.23,2.06,3.05
13:05:15:982,-0.73,-1.99,2.45,3.24
13:05:15:993,-0.92,-2.21,2.67,3.59
13:05:16:003,-1.42,-2.14,2.71,3.73
13:05:16:013,-1.83,-2.29,2.38,3.78
13:05:16:024,-2.61,-2.21,2.24,4.09
13:05:16:035,-3.13,-2.51,1.84,4.41
13:05:16:044,-3.50,-2.48,1.76,4.64
13:05:16:053,-3.84,-2.52,1.30,4.77
13:05:16:062,-4.48,-2.51,0.85,5.21
13:05:16:071,-5.07,-2.86,0.44,5.84
13:05:16:080,-5.45,-2.83,0.41,6.15
13:05:16:090,-5.86,-2.88,-0.20,6.53
13:05:16:101,-6.49,-2.95,-0.31,7.14
13:05:16:111,-6.97,-3.20,-0.88,7.72
13:05:16:122,-7.71,-3.18,-1.13,8.42
13:05:16:132,-8.28,-3.24,-0.96,8.94
13:05:16:144,-8.57,-3.35,-0.84,9.24
13:05:16:153,-9.02,-3.64,-1.11,9.79
13:05:16:162,-9.33,-3.66,-0.61,10.04
13:05:16:173,-9.88,-3.84,-0.51,10.61
13:05:16:182,-10.21,-3.92,-0.10,10.94
13:05:16:191,-10.47,-4.03,0.18,11.22
13:05:16:202,-10.49,-3.96,0.24,11.22
13:05:16:212,-10.64,-4.41,0.78,11.54
13:05:16:221,-10.94,-4.18,0.61,11.73
13:05:16:231,-10.81,-4.61,0.91,11.79
13:05:16:242,-10.98,-4.72,1.02,11.99
13:05:16:251,-10.89,-4.78,0.94,11.93
13:05:16:262,-10.70,-4.87,0.98,11.80
13:05:16:271,-10.65,-4.77,0.98,11.71
13:05:16:282,-10.36,-4.88,0.40,11.46
13:05:16:291,-10.08,-4.94,0.31,11.23
13:05:16:301,-9.71,-5.23,-0.03,11.03
13:05:16:309,-9.25,-5.44,-0.54,10.74
13:05:16:319,-8.91,-5.31,-0.75,10.40
13:05:16:330,-8.08,-5.31,-1.41,9.77
13:05:16:339,-7.78,-5.66,-1.60,9.75
13:05:16:349,-7.11,-5.47,-1.94,9.18
13:05:16:359,-6.32,-5.84,-2.16,8.87
13:05:16:370,-5.77,-5.65,-2.28,8.39
13:05:16:379,-4.99,-5.78,-2.39,8.00
13:05:16:389,-4.14,-5.69,-2.60,7.50
13:05:16:399,-3.38,-5.74,-2.61,7.15
13:05:16:410,-2.38,-6.08,-2.38,6.95
13:05:16:420,-1.67,-5.95,-1.81,6.44
13:05:16:431,-1.03,-6.06,-1.38,6.30
13:05:16:441,0.05,-6.01,-0.86,6.07
13:05:16:452,0.80,-6.15,-0.28,6.21
13:05:16:461,1.59,-6.05,0.12,6.26
13:05:16:472,2.22,-6.03,0.86,6.48
13:05:16:483,3.10,-6.16,1.29,7.02
13:05:16:492,3.85,-5.97,1.72,7.31
13:05:16:501,4.46,-5.80,2.16,7.63
13:05:16:512,5.17,-6.06,2.41,8.32
13:05:16:523,5.59,-5.71,2.67,8.43
13:05:16:532,6.29,-5.83,2.83,9.03
13:05:16:543,6.73,-5.86,2.53,9.28
13:05:16:552,7.18,-5.52,2.59,9.42
13:05:16:562,7.63,-5.58,2.15,9.69
13:05:16:573,7.85,-5.42,1.90,9.73
13:05:16:583,8.32,-5.23,1.73,9.98
13:05:16:592,8.53,-4.80,1.40,9.89
13:05:16:602,8.68,-4.75,0.99,9.94
13:05:16:610,8.66,-4.37,0.53,9.71
13:05:16:620,8.81,-3.93,0.20,9.65
13:05:16:629,8.74,-3.52,-0.12,9.42
13:05:16:638,8.97,-2.73,-0.53,9.39
13:05:16:647,9.00,-2.30,-0.93,9.34
13:05:16:656,8.69,-1.59,-1.21,8.92
13:05:16:666,8.82,-0.82,-0.92,8.91
13:05:16:676,8.67,-0.15,-0.93,8.72
13:05:16:688,8.27,0.66,-0.84,8.34
13:05:16:697,8.41,1.48,-0.77,8.57
13:05:16:707,8.05,2.27,-0.50,8.38
13:05:16:717,7.76,2.96,-0.20,8.31
13:05:16:726,7.47,3.57,-0.05,8.28
13:05:16:735,7.52,4.22,0.28,8.63
13:05:16:746,7.08,5.05,0.37,8.70
13:05:16:756,6.89,5.39,0.76,8.78
13:05:16:767,6.49,6.18,1.00,9.02
13:05:16:775,6.41,6.23,1.07,9.00
13:05:16:786,6.06,6.53,0.95,8.96
13:05:16:797,5.92,6.65,0.82,8.94
13:05:16:808,5.59,6.80,0.91,8.85
13:05:16:816,5.40,6.74,0.44,8.65
13:05:16:826,5.00,6.70,0.48,8.37
13:05:16:836,4.71,6.54,-0.17,8.06
13:05:16:847,4.76,5.95,-0.31,7.63
13:05:16:856,4.59,5.79,-0.89,7.44
13:05:16:865,4.30,5.17,-1.01,6.80
13:05:16:876,4.17,4.63,-1.78,6.48
13:05:16:886,3.90,3.97,-2.17,5.97
13:05:16:896,3.68,3.65,-2.19,5.63
13:05:16:907,3.39,2.77,-2.37,4.98
13:05:16:916,3.19,2.31,-2.68,4.76
13:05:16:925,3.07,1.55,-2.62,4.32
13:05:16:935,2.78,1.23,-2.43,3.89
13:05:16:944,2.67,0.57,-2.44,3.66
13:05:16:952,2.51,0.21,-2.15,3.31
13:05:16:963,2.12,-0.19,-1.68,2.71
13:05:16:974,1.97,-0.82,-1.30,2.50
13:05:16:984,1.68,-1.05,-0.85,2.16
13:05:16:995,1.52,-1.24,0.09,1.96
13:05:17:004,1.30,-1.69,0.22,2.14
13:05:17:014,0.92,-1.77,1.19,2.32
13:05:17:025,0.58,-2.01,1.64,2.66
13:05:17:035,0.20,-2.12,1.87,2.83
13:05:17:046,-0.34,-2.07,2.43,3.21
13:05:17:056,-0.71,-2.13,2.26,3.19
13:05:17:066,-0.93,-2.11,2.62,3.49
13:05:17:076,-1.35,-2.08,2.54,3.55
13:05:17:086,-2.09,-2.19,2.42,3.88
13:05:17:095,-2.58,-2.38,2.56,4.34
13:05:17:105,-2.77,-2.39,1.85,4.10
13:05:17:116,-3.37,-2.40,1.89,4.55
13:05:17:125,-3.92,-2.42,1.15,4.75
13:05:17:135,-4.39,-2.55,1.03,5.18
13:05:17:146,-5.05,-2.71,0.38,5.74
13:05:17:156,-5.46,-2.93,0.11,6.20
13:05:17:165,-6.19,-2.76,-0.04,6.78
13:05:17:174,-6.64,-3.06,-0.41,7.32
13:05:17:185,-7.08,-3.12,-1.01,7.80
13:05:17:195,-7.78,-3.06,-1.08,8.43
13:05:17:205,-8.09,-3.41,-1.07,8.84
13:05:17:214,-8.66,-3.26,-0.95,9.30
13:05:17:225,-8.97,-3.62,-1.21,9.75
13:05:17:236,-9.38,-3.80,-0.60,10.14
13:05:17:245,-9.83,-3.75,-0.41,10.53
13:05:17:254,-9.92,-3.76,-0.11,10.61
13:05:17:263,-10.30,-4.00,-0.23,11.05
13:05:17:275,-10.50,-3.98,0.10,11.23
13:05:17:286,-10.95,-4.26,0.71,11.77
13:05:17:294,-11.02,-4.22,0.75,11.82
13:05:17:304,-10.86,-4.57,0.79,11.81
13:05:17:313,-10.79,-4.61,0.78,11.76
13:05:17:323,-10.85,-4.78,0.93,11.89
13:05:17:334,-10.62,-4.69,1.11,11.66
13:05:17:343,-10.77,-4.87,1.02,11.86
13:05:17:352,-10.27,-4.90,0.65,11.40
13:05:17:362,-9.99,-5.15,0.65,11.26
13:05:17:372,-9.73,-5.07,0.11,10.97
13:05:17:383,-9.36,-5.08,-0.31,10.65
13:05:17:392,-8.81,-5.49,-0.78,10.41
13:05:17:401,-8.51,-5.48,-1.15,10.19
13:05:17:411,-7.83,-5.36,-1.56,9.62
13:05:17:422,-7.13,-5.45,-1.75,9.14
13:05:17:433,-6.49,-5.52,-2.27,8.82
13:05:17:442,-5.98,-5.80,-2.57,8.72
13:05:17:453,-5.28,-5.75,-2.62,8.23
13:05:17:462,-4.51,-5.96,-2.40,7.85
13:05:17:473,-3.46,-5.89,-2.46,7.26
13:05:17:482,-3.01,-5.87,-2.57,7.08
13:05:17:493,-2.18,-6.02,-2.10,6.74
13:05:17:502,-1.40,-5.99,-1.75,6.40
13:05:17:512,-0.52,-6.03,-1.54,6.25
13:05:17:522,0.33,-6.14,-0.54,6.17
13:05:17:532,1.21,-6.15,-0.03,6.27
13:05:17:541,1.89,-5.90,0.05,6.20
13:05:17:550,2.59,-6.17,0.76,6.73
13:05:17:559,3.23,-5.81,1.11,6.74
13:05:17:568,3.68,-5.83,1.45,7.05
13:05:17:577,4.18,-5.77,1.85,7.36
13:05:17:586,5.02,-5.82,2.02,7.95
13:05:17:596,5.35,-6.06,2.56,8.48
13:05:17:606,6.02,-5.98,2.52,8.85
13:05:17:616,6.41,-5.85,2.71,9.09
13:05:17:625,7.03,-5.84,2.69,9.53
13:05:17:634,7.18,-5.80,2.42,9.54
13:05:17:643,7.61,-5.38,2.07,9.55
13:05:17:654,7.88,-5.20,1.62,9.58
13:05:17:663,8.36,-5.03,1.53,9.88
13:05:17:673,8.49,-4.94,1.14,9.89
13:05:17:684,8.68,-4.35,0.74,9.74
13:05:17:694,8.69,-3.95,0.02,9.55
13:05:17:705,8.73,-3.58,-0.44,9.45
13:05:17:716,9.00,-3.01,-0.38,9.50
13:05:17:725,8.95,-2.42,-0.75,9.30
13:05:17:736,8.89,-1.60,-1.19,9.11
13:05:17:745,8.90,-0.79,-0.95,8.99
13:05:17:754,8.64,-0.38,-1.28,8.74
13:05:17:764,8.36,0.50,-0.93,8.43
13:05:17:774,8.34,1.27,-0.81,8.47
13:05:17:786,8.01,2.34,-0.49,8.36
13:05:17:795,7.89,2.76,-0.57,8.38
13:05:17:805,7.63,3.70,0.13,8.48
13:05:17:815,7.43,4.25,0.44,8.57
13:05:17:824,7.33,4.92,0.70,8.86
13:05:17:836,7.00,5.60,0.87,9.01
13:05:17:846,6.59,6.09,0.83,9.01
13:05:17:855,6.50,6.42,1.27,9.22
13:05:17:866,6.22,6.53,1.13,9.09
13:05:17:875,5.97,6.68,1.14,9.03
13:05:17:884,5.67,6.70,1.00,8.83
13:05:17:893,5.56,6.73,0.59,8.75
13:05:17:905,5.15,6.55,0.60,8.35
13:05:17:913,4.82,6.60,0.20,8.18
13:05:17:924,4.62,6.01,-0.44,7.59
13:05:17:935,4.54,5.66,-0.79,7.30
13:05:17:943,4.26,5.48,-1.27,7.06
13:05:17:954,4.07,4.96,-1.54,6.60
13:05:17:964,3.87,4.48,-1.63,6.14
13:05:17:974,3.60,3.68,-2.25,5.62
13:05:17:984,3.36,2.92,-2.49,5.10
13:05:17:995,3.15,2.55,-2.43,4.73
13:05:18:006,3.14,1.68,-2.82,4.54
13:05:18:015,2.85,1.34,-2.73,4.17
13:05:18:026,2.67,0.48,-2.21,3.50
13:05:18:036,2.63,0.00,-2.24,3.45
13:05:18:047,2.29,-0.29,-1.58,2.80
13:05:18:058,2.09,-0.70,-0.97,2.41
13:05:18:070,1.78,-1.12,-0.51,2.16
13:05:18:079,1.59,-1.38,-0.25,2.12
13:05:18:089,1.00,-1.57,0.34,1.89
13:05:18:100,0.76,-1.93,1.09,2.34
13:05:18:111,0.58,-2.09,1.82,2.83
13:05:18:121,0.07,-2.07,2.05,2.91
13:05:18:132,-0.20,-2.07,2.41,3.18
13:05:18:142,-0.85,-2.21,2.56,3.49
13:05:18:152,-1.31,-2.28,2.52,3.64
13:05:18:163,-1.49,-2.24,2.65,3.78
13:05:18:172,-2.12,-2.31,2.24,3.85
13:05:18:182,-2.56,-2.42,2.24,4.17
13:05:18:192,-2.89,-2.25,2.17,4.26
13:05:18:202,-3.64,-2.32,1.52,4.58
13:05:18:211,-3.85,-2.70,1.40,4.91
13:05:18:219,-4.51,-2.62,1.08,5.33
13:05:18:230,-5.13,-2.80,0.35,5.85
13:05:18:240,-5.68,-2.85,0.29,6.36
13:05:18:251,-6.14,-3.06,-0.40,6.87
13:05:18:262,-6.73,-3.15,-0.38,7.44
13:05:18:271,-7.05,-3.26,-0.90,7.82
13:05:18:280,-7.80,-3.32,-0.92,8.53
13:05:18:289,-8.25,-3.24,-0.83,8.90
13:05:18:299,-8.64,-3.54,-0.90,9.38
13:05:18:310,-8.95,-3.37,-0.99,9.61
13:05:18:319,-9.27,-3.51,-0.99,9.96
13:05:18:329,-9.72,-3.81,-0.59,10.46
13:05:18:339,-10.00,-3.78,-0.34,10.70
13:05:18:348,-10.25,-3.79,-0.35,10.93
13:05:18:357,-10.68,-4.18,0.06,11.47
13:05:18:368,-10.80,-4.15,0.62,11.59
13:05:18:378,-10.68,-4.30,0.69,11.53
13:05:18:388,-10.98,-4.47,0.71,11.88
13:05:18:398,-10.79,-4.59,1.08,11.78
13:05:18:407,-10.92,-4.75,1.04,11.95
13:05:18:416,-10.93,-4.66,1.26,11.95
13:05:18:427,-10.86,-4.93,0.96,11.97
13:05:18:436,-10.59,-4.95,0.56,11.70
13:05:18:446,-10.31,-4.86,0.40,11.41
13:05:18:456,-9.94,-5.17,0.08,11.20
13:05:18:466,-9.55,-5.28,0.09,10.91
13:05:18:475,-9.13,-5.14,-0.56,10.49
13:05:18:486,-8.64,-5.35,-1.01,10.21
13:05:18:494,-8.34,-5.43,-1.06,10.01
13:05:18:506,-7.60,-5.64,-1.88,9.65
13:05:18:515,-6.79,-5.55,-1.98,8.99
13:05:18:524,-6.51,-5.71,-2.07,8.90
13:05:18:533,-5.64,-5.70,-2.27,8.33
13:05:18:545,-4.91,-5.82,-2.77,8.10
13:05:18:554,-4.14,-5.98,-2.62,7.73
13:05:18:564,-3.49,-5.74,-2.63,7.21
13:05:18:576,-2.59,-5.85,-2.16,6.75
13:05:18:587,-1.65,-5.79,-2.02,6.35
13:05:18:596,-0.83,-6.04,-1.71,6.33
13:05:18:606,-0.25,-6.06,-1.20,6.18
13:05:18:616,0.46,-6.12,-0.75,6.18
13:05:18:627,1.25,-6.07,0.11,6.20
13:05:18:636,2.25,-6.06,0.40,6.48
13:05:18:646,2.74,-6.10,0.95,6.75
13:05:18:654,3.26,-6.06,1.29,7.00
13:05:18:663,4.00,-6.03,1.71,7.44
13:05:18:673,4.74,-5.81,2.03,7.77
13:05:18:682,5.18,-5.92,2.29,8.19
13:05:18:691,5.53,-5.76,2.63,8.41
13:05:18:700,6.12,-5.98,2.45,8.90
13:05:18:709,6.50,-5.89,2.70,9.18
13:05:18:718,6.80,-5.56,2.44,9.12
13:05:18:729,7.58,-5.76,2.11,9.75
13:05:18:739,7.74,-5.62,1.85,9.74
13:05:18:748,7.91,-5.29,1.94,9.71
13:05:18:759,8.44,-5.12,1.10,9.93
13:05:18:767,8.65,-4.90,0.87,9.98
13:05:18:776,8.75,-4.43,0.78,9.84
13:05:18:788,8.69,-3.95,-0.07,9.55
13:05:18:799,8.74,-3.55,-0.41,9.44
13:05:18:809,8.88,-2.84,-0.70,9.35
13:05:18:818,8.89,-2.33,-0.63,9.21
13:05:18:828,8.95,-1.57,-1.15,9.16
13:05:18:836,8.91,-1.24,-0.82,9.03
13:05:18:845,8.79,-0.51,-1.26,8.89
13:05:18:854,8.48,0.25,-1.00,8.54
13:05:18:863,8.42,0.75,-0.79,8.49
13:05:18:873,8.08,1.83,-0.71,8.32
13:05:18:882,8.04,2.54,-0.54,8.45
13:05:18:891,7.69,2.98,-0.34,8.25
13:05:18:902,7.45,3.92,-0.12,8.42
13:05:18:912,7.22,4.36,0.52,8.45
13:05:18:921,7.05,5.17,0.48,8.76
13:05:18:930,6.83,5.38,0.80,8.73
13:05:18:941,6.69,5.80,0.96,8.91
13:05:18:951,6.20,6.19,1.27,8.85
13:05:18:961,5.96,6.59,0.94,8.93
13:05:18:972,5.89,6.61,0.84,8.89
13:05:18:981,5.68,7.00,1.10,9.08
13:05:18:990,5.47,6.85,0.71,8.79
13:05:19:000,5.23,6.71,0.50,8.52
13:05:19:012,4.96,6.48,0.10,8.16
13:05:19:022,4.68,6.07,-0.24,7.67
13:05:19:033,4.53,5.82,-0.64,7.40
13:05:19:043,4.09,5.30,-1.12,6.79
13:05:19:052,3.97,4.77,-1.81,6.46
13:05:19:063,3.94,4.11,-1.78,5.97
13:05:19:071,3.58,3.55,-2.44,5.60
13:05:19:080,3.54,3.09,-2.24,5.21
13:05:19:091,3.24,2.47,-2.82,4.95
13:05:19:102,3.10,1.73,-2.48,4.33
13:05:19:113,3.03,1.41,-2.47,4.16
13:05:19:123,2.77,0.65,-2.60,3.85
13:05:19:132,2.51,0.29,-2.00,3.22
13:05:19:140,2.27,-0.27,-1.79,2.90
13:05:19:151,2.20,-0.55,-1.56,2.75
13:05:19:163,1.88,-0.92,-0.63,2.19
13:05:19:172,1.56,-1.39,-0.29,2.11
13:05:19:183,1.41,-1.35,0.23,1.97
13:05:19:193,1.06,-1.82,0.98,2.32
13:05:19:202,0.86,-1.92,1.07,2.36
13:05:19:212,0.42,-1.87,1.50,2.43
13:05:19:221,0.20,-2.07,2.18,3.01
13:05:19:230,-0.29,-1.94,2.11,2.88
13:05:19:240,-0.59,-2.21,2.64,3.49
13:05:19:250,-0.98,-2.23,2.45,3.45
13:05:19:260,-1.68,-2.15,2.76,3.88
13:05:19:271,-2.05,-2.15,2.45,3.85
13:05:19:283,-2.54,-2.21,2.34,4.10
13:05:19:292,-3.19,-2.48,2.07,4.54
13:05:19:301,-3.40,-2.46,1.65,4.51
13:05:19:313,-4.01,-2.58,1.28,4.94
13:05:19:323,-4.45,-2.57,0.93,5.22
13:05:19:331,-5.11,-2.80,0.32,5.84
13:05:19:340,-5.53,-2.67,0.36,6.15
13:05:19:352,-5.98,-2.82,-0.10,6.61
13:05:19:362,-6.68,-3.10,-0.72,7.40
13:05:19:370,-6.97,-3.14,-0.92,7.70
13:05:19:380,-7.61,-3.23,-1.01,8.33
13:05:19:390,-8.11,-3.13,-0.92,8.74
13:05:19:400,-8.58,-3.40,-1.06,9.29
13:05:19:412,-9.08,-3.47,-1.08,9.78
13:05:19:423,-9.45,-3.48,-0.68,10.09
13:05:19:432,-9.85,-3.77,-0.78,10.58
13:05:19:441,-9.90,-3.68,-0.30,10.57
13:05:19:451,-10.12,-4.02,-0.01,10.89
13:05:19:462,-10.68,-4.24,-0.03,11.49
13:05:19:472,-10.88,-4.32,0.48,11.72
13:05:19:483,-11.04,-4.24,0.75,11.85
13:05:19:493,-10.78,-4.46,1.13,11.72
13:05:19:502,-11.10,-4.40,0.91,11.97
13:05:19:513,-10.84,-4.63,1.05,11.83
13:05:19:521,-10.89,-4.66,1.27,11.91
13:05:19:532,-10.76,-4.89,0.76,11.84
13:05:19:541,-10.56,-4.90,0.98,11.68
13:05:19:551,-10.14,-4.96,0.46,11.30
13:05:19:562,-10.01,-5.18,0.09,11.27
13:05:19:573,-9.33,-5.23,0.04,10.70
13:05:19:581,-9.06,-5.18,-0.61,10.45
13:05:19:591,-8.70,-5.23,-1.08,10.21
13:05:19:602,-8.16,-5.52,-1.52,9.97
13:05:19:610,-7.52,-5.68,-1.60,9.56
13:05:19:619,-6.96,-5.48,-1.94,9.07
13:05:19:628,-6.53,-5.67,-2.38,8.97
13:05:19:638,-5.84,-5.55,-2.47,8.43
13:05:19:648,-5.13,-5.68,-2.69,8.11
13:05:19:658,-4.25,-5.86,-2.44,7.64
13:05:19:667,-3.68,-5.74,-2.62,7.30
13:05:19:678,-2.78,-5.88,-2.31,6.90
13:05:19:687,-2.16,-5.85,-1.93,6.53
13:05:19:698,-1.32,-5.82,-1.88,6.26
13:05:19:709,-0.47,-5.95,-1.03,6.06
13:05:19:719,0.36,-5.84,-0.78,5.90
13:05:19:729,1.04,-6.03,-0.19,6.12
13:05:19:740,1.94,-6.04,0.21,6.35
13:05:19:750,2.42,-5.94,0.90,6.48
13:05:19:760,3.23,-6.01,1.44,6.97
13:05:19:770,4.04,-5.89,1.78,7.36
13:05:19:781,4.54,-5.92,2.29,7.80
13:05:19:790,5.26,-5.82,2.35,8.19
13:05:19:800,5.87,-5.75,2.30,8.53
13:05:19:812,6.32,-5.79,2.82,9.02
13:05:19:820,6.56,-5.62,2.62,9.03
13:05:19:831,7.25,-5.58,2.51,9.49
13:05:19:841,7.59,-5.44,2.28,9.61
13:05:19:851,7.78,-5.59,1.72,9.73
13:05:19:860,8.25,-5.40,1.51,9.98
13:05:19:869,8.33,-4.97,1.08,9.76
13:05:19:878,8.36,-4.79,0.98,9.68
13:05:19:889,8.52,-4.23,0.66,9.54
13:05:19:898,8.68,-4.03,0.22,9.57
13:05:19:908,8.89,-3.40,-0.08,9.52
13:05:19:920,8.99,-2.95,-0.67,9.49
13:05:19:931,8.71,-2.11,-1.08,9.03
13:05:19:942,8.62,-1.27,-1.05,8.78
13:05:19:953,8.73,-0.51,-1.23,8.83
13:05:19:962,8.54,-0.02,-1.14,8.62
13:05:19:974,8.38,0.88,-1.06,8.49
13:05:19:983,8.35,1.58,-0.94,8.55
13:05:19:994,8.17,2.35,-0.44,8.51
13:05:20:005,7.95,3.20,-0.20,8.57
13:05:20:015,7.65,4.08,0.20,8.67
13:05:20:025,7.14,4.68,0.56,8.56
13:05:20:034,6.97,5.01,0.42,8.59
13:05:20:044,6.87,5.65,0.99,8.95
13:05:20:054,6.77,6.15,1.06,9.21
13:05:20:063,6.24,6.26,1.06,8.90
13:05:20:072,6.16,6.67,1.30,9.17
13:05:20:082,5.85,6.85,1.04,9.07
13:05:20:094,5.58,6.97,0.66,8.95
13:05:20:103,5.33,6.67,0.53,8.55
13:05:20:111,5.13,6.87,0.40,8.58
13:05:20:121,4.91,6.72,0.30,8.33
13:05:20:129,4.67,6.23,-0.09,7.79
13:05:20:138,4.63,6.06,-0.38,7.64
13:05:20:149,4.39,5.46,-1.13,7.10
13:05:20:158,4.29,5.19,-1.41,6.88
13:05:20:168,4.07,4.73,-1.63,6.45
13:05:20:177,4.01,4.25,-1.89,6.14
13:05:20:188,3.60,3.69,-2.29,5.64
13:05:20:197,3.62,2.94,-2.60,5.34
13:05:20:207,3.27,2.31,-2.68,4.82
13:05:20:217,3.18,1.99,-2.48,4.50
13:05:20:228,3.02,1.08,-2.43,4.02
13:05:20:237,2.69,0.67,-2.51,3.74
13:05:20:248,2.49,0.15,-1.87,3.12
13:05:20:257,2.36,-0.09,-2.00,3.09
13:05:20:269,1.93,-0.65,-1.43,2.49
13:05:20:278,1.84,-0.84,-0.87,2.20
13:05:20:288,1.44,-1.19,-0.17,1.88
13:05:20:299,1.18,-1.40,0.29,1.85
13:05:20:310,1.01,-1.61,0.88,2.09
13:05:20:319,0.86,-1.71,1.44,2.40
13:05:20:328,0.58,-2.01,1.54,2.60
13:05:20:339,-0.07,-2.08,1.88,2.80
13:05:20:348,-0.43,-2.03,2.24,3.05
13:05:20:357,-0.66,-2.09,2.51,3.33
13:05:20:368,-1.16,-2.07,2.42,3.39
13:05:20:377,-1.54,-2.10,2.38,3.53
13:05:20:386,-1.80,-2.32,2.66,3.96
13:05:20:395,-2.25,-2.44,2.64,4.24
13:05:20:404,-2.71,-2.28,2.41,4.28
13:05:20:414,-3.17,-2.36,1.84,4.36
13:05:20:424,-3.70,-2.58,1.52,4.76
13:05:20:434,-4.15,-2.73,1.34,5.14
13:05:20:442,-4.51,-2.81,1.06,5.42
13:05:20:453,-5.07,-2.82,0.31,5.81
13:05:20:464,-5.62,-2.91,0.19,6.33
13:05:20:474,-6.18,-3.03,-0.28,6.89
13:05:20:483,-6.90,-3.17,-0.81,7.64
13:05:20:493,-7.28,-3.22,-0.88,8.01
13:05:20:504,-7.66,-3.27,-1.25,8.42
13:05:20:514,-8.28,-3.46,-1.11,9.04
13:05:20:525,-8.65,-3.53,-1.03,9.40
13:05:20:534,-9.24,-3.56,-0.80,9.93
13:05:20:544,-9.56,-3.52,-0.88,10.23
13:05:20:553,-9.80,-3.61,-0.53,10.46
13:05:20:563,-10.23,-3.89,-0.27,10.95
13:05:20:574,-10.39,-4.11,-0.05,11.17
13:05:20:585,-10.68,-4.17,0.29,11.47
13:05:20:594,-10.62,-4.14,0.46,11.41
13:05:20:606,-10.94,-4.36,0.79,11.80
13:05:20:616,-10.98,-4.42,0.90,11.87
13:05:20:626,-10.84,-4.46,1.24,11.79
13:05:20:636,-10.87,-4.59,0.88,11.83
13:05:20:647,-10.94,-4.64,1.21,11.94
13:05:20:656,-10.73,-5.00,1.04,11.88
13:05:20:666,-10.37,-5.03,0.47,11.54
13:05:20:677,-10.22,-5.22,0.54,11.49
13:05:20:687,-9.87,-5.14,0.04,11.13
13:05:20:698,-9.31,-5.21,-0.30,10.67
13:05:20:708,-8.92,-5.42,-0.69,10.46
13:05:20:718,-8.51,-5.57,-0.98,10.22
13:05:20:727,-7.92,-5.50,-1.47,9.75
13:05:20:738,-7.24,-5.68,-1.80,9.38
13:05:20:748,-6.87,-5.74,-2.29,9.24
13:05:20:758,-6.11,-5.74,-2.62,8.78
13:05:20:768,-5.44,-5.59,-2.47,8.18
13:05:20:779,-4.44,-5.86,-2.37,7.72
13:05:20:791,-3.90,-5.78,-2.77,7.50
13:05:20:799,-3.16,-5.93,-2.22,7.08
13:05:20:811,-2.35,-5.96,-2.21,6.78
13:05:20:821,-1.39,-6.08,-1.73,6.47
13:05:20:830,-0.69,-6.08,-1.57,6.32
13:05:20:840,-0.20,-5.89,-0.90,5.96
13:05:20:849,0.73,-6.02,-0.60,6.09
13:05:20:859,1.42,-6.08,0.10,6.24
13:05:20:868,1.90,-5.83,0.31,6.14
13:05:20:877,2.82,-5.86,0.82,6.55
13:05:20:887,3.24,-6.06,1.41,7.01
13:05:20:897,4.08,-5.98,1.58,7.41
13:05:20:908,4.51,-5.90,2.38,7.80
13:05:20:919,5.29,-6.01,2.48,8.38
13:05:20:929,5.82,-5.88,2.80,8.73
13:05:20:939,6.46,-5.88,2.45,9.07
13:05:20:948,6.83,-5.65,2.69,9.26
13:05:20:957,7.13,-5.83,2.32,9.50
13:05:20:969,7.38,-5.39,2.02,9.36
13:05:20:977,7.80,-5.53,1.95,9.76
13:05:20:989,8.09,-5.28,1.58,9.79
13:05:20:999,8.55,-5.10,1.23,10.03
13:05:21:008,8.62,-4.52,0.81,9.77
13:05:21:019,8.67,-4.15,0.24,9.62
13:05:21:029,8.75,-4.01,0.13,9.63
13:05:21:040,8.95,-3.30,-0.46,9.55
13:05:21:048,8.73,-2.86,-0.70,9.21
13:05:21:057,8.97,-2.26,-0.66,9.27
13:05:21:068,8.87,-1.66,-0.89,9.07
13:05:21:078,8.70,-0.77,-0.94,8.78
13:05:21:087,8.70,-0.39,-0.85,8.75
13:05:21:097,8.46,0.56,-0.83,8.52
13:05:21:106,8.22,1.06,-1.02,8.35
13:05:21:116,8.13,1.95,-0.45,8.37
13:05:21:127,7.79,2.65,-0.43,8.24
13:05:21:138,7.56,3.46,-0.12,8.32
13:05:21:147,7.49,4.04,-0.02,8.51
13:05:21:157,7.38,4.70,0.31,8.76
13:05:21:169,6.89,5.14,0.67,8.62
13:05:21:179,6.75,5.60,0.61,8.79
13:05:21:189,6.65,6.34,1.10,9.25
13:05:21:198,6.38,6.36,0.98,9.06
13:05:21:209,6.13,6.64,1.15,9.11
13:05:21:220,5.81,6.72,1.09,8.95
13:05:21:231,5.51,6.88,0.85,8.86
13:05:21:242,5.26,6.91,0.31,8.69
13:05:21:253,5.02,6.50,0.22,8.22
13:05:21:261,4.79,6.25,-0.20,7.88
13:05:21:272,4.53,5.90,-0.43,7.45
13:05:21:281,4.31,5.43,-0.79,6.98
13:05:21:290,4.07,5.03,-1.27,6.59
13:05:21:300,3.99,4.54,-1.51,6.23
13:05:21:310,3.94,4.09,-2.15,6.07
13:05:21:320,3.68,3.74,-2.10,5.65
13:05:21:332,3.33,2.79,-2.25,4.89
13:05:21:340,3.41,2.44,-2.38,4.82
13:05:21:349,2.97,1.80,-2.46,4.26
13:05:21:359,3.10,1.21,-2.61,4.23
13:05:21:370,2.80,0.92,-2.18,3.67
13:05:21:380,2.56,0.17,-2.11,3.32
13:05:21:390,2.30,-0.27,-1.95,3.03
13:05:21:401,2.21,-0.46,-1.35,2.63
13:05:21:411,1.68,-1.02,-0.71,2.09
13:05:21:421,1.45,-1.31,-0.33,1.98
13:05:21:429,1.40,-1.27,0.20,1.90
13:05:21:439,1.05,-1.73,0.31,2.05
13:05:21:451,0.75,-1.69,1.32,2.27
13:05:21:461,0.47,-1.99,1.76,2.70
13:05:21:469,0.01,-1.97,1.88,2.72
13:05:21:479,-0.01,-2.12,2.40,3.20
13:05:21:489,-0.48,-2.16,2.26,3.16
13:05:21:499,-1.09,-2.00,2.50,3.38
13:05:21:509,-1.29,-2.05,2.45,3.45
13:05:21:521,-1.85,-2.36,2.64,4.00
13:05:21:530,-2.23,-2.22,2.62,4.09
13:05:21:540,-2.66,-2.49,2.40,4.36
13:05:21:550,-3.07,-2.50,1.67,4.30
13:05:21:562,-3.92,-2.66,1.63,5.01
13:05:21:572,-4.15,-2.54,1.11,4.99
13:05:21:582,-4.83,-2.59,0.55,5.51
13:05:21:593,-5.49,-2.67,0.46,6.12
13:05:21:603,-5.93,-2.75,-0.09,6.54
13:05:21:614,-6.51,-2.99,-0.70,7.20
13:05:21:624,-6.79,-3.15,-0.77,7.52
13:05:21:633,-7.34,-3.30,-0.80,8.09
13:05:21:644,-8.02,-3.26,-0.85,8.70
13:05:21:653,-8.21,-3.18,-1.22,8.89
13:05:21:664,-8.76,-3.47,-0.99,9.47
13:05:21:674,-9.05,-3.52,-1.13,9.78
13:05:21:684,-9.69,-3.52,-0.55,10.32
13:05:21:693,-9.69,-3.63,-0.81,10.38
13:05:21:704,-10.00,-3.80,-0.06,10.70
13:05:21:713,-10.53,-3.94,-0.03,11.24
13:05:21:724,-10.61,-4.19,0.38,11.41
13:05:21:735,-10.91,-4.13,0.62,11.68
13:05:21:745,-10.87,-4.35,0.74,11.73
13:05:21:754,-11.08,-4.35,0.87,11.94
13:05:21:765,-10.81,-4.64,0.88,11.80
13:05:21:775,-11.01,-4.49,0.96,11.93
13:05:21:783,-10.75,-4.85,0.84,11.82
13:05:21:793,-10.61,-4.73,0.83,11.65
13:05:21:803,-10.54,-4.79,0.86,11.61
13:05:21:812,-10.33,-5.14,0.58,11.55
13:05:21:823,-9.77,-4.99,0.28,10.97
13:05:21:834,-9.67,-5.16,-0.14,10.96
13:05:21:845,-9.14,-5.27,-0.35,10.56
13:05:21:854,-8.70,-5.47,-0.75,10.30
13:05:21:864,-8.11,-5.52,-1.44,9.92
13:05:21:874,-7.64,-5.62,-1.66,9.63
13:05:21:885,-7.05,-5.63,-1.82,9.20
13:05:21:894,-6.35,-5.61,-2.40,8.81
13:05:21:904,-5.64,-5.64,-2.38,8.32
13:05:21:915,-4.88,-5.71,-2.53,7.93
13:05:21:925,-4.27,-5.88,-2.52,7.69
13:05:21:934,-3.66,-5.92,-2.50,7.40
13:05:21:945,-3.02,-5.81,-2.24,6.92
13:05:21:954,-2.13,-5.77,-2.17,6.52
13:05:21:965,-1.25,-6.06,-1.50,6.37
13:05:21:974,-0.66,-6.01,-1.33,6.19
13:05:21:983,0.20,-6.07,-1.02,6.16
13:05:21:992,0.58,-5.83,-0.44,5.88
13:05:22:003,1.56,-6.17,0.12,6.37
13:05:22:012,2.19,-5.86,0.72,6.30
13:05:22:023,3.03,-5.89,1.12,6.72
13:05:22:034,3.77,-6.03,1.56,7.28
13:05:22:046,4.24,-5.88,1.90,7.49
13:05:22:055,5.02,-5.96,2.21,8.10
13:05:22:063,5.32,-5.84,2.33,8.24
13:05:22:073,5.92,-5.88,2.63,8.75
13:05:22:084,6.57,-5.65,2.80,9.11
13:05:22:095,6.92,-5.75,2.59,9.36
13:05:22:104,7.26,-5.55,2.26,9.41
13:05:22:115,7.46,-5.51,1.94,9.47
13:05:22:126,7.99,-5.40,2.02,9.85
13:05:22:137,8.15,-4.95,1.33,9.63
13:05:22:148,8.43,-4.93,1.11,9.83
13:05:22:159,8.60,-4.31,0.80,9.65
13:05:22:170,8.94,-3.84,0.38,9.74
13:05:22:180,8.89,-3.44,-0.15,9.53
13:05:22:188,8.95,-3.07,-0.25,9.47
13:05:22:199,8.76,-2.46,-0.78,9.13
13:05:22:208,8.77,-1.81,-0.68,8.98
13:05:22:218,8.91,-1.35,-0.93,9.06
13:05:22:229,8.53,-0.41,-1.28,8.64
13:05:22:239,8.70,0.30,-0.87,8.75
13:05:22:249,8.36,1.07,-1.09,8.50
13:05:22:261,8.15,1.76,-0.48,8.35
13:05:22:270,8.02,2.51,-0.74,8.44
13:05:22:282,7.75,3.12,-0.10,8.36
13:05:22:293,7.51,3.85,-0.09,8.44
13:05:22:302,7.27,4.45,0.35,8.53
13:05:22:312,7.15,5.20,0.50,8.86
13:05:22:321,6.78,5.50,0.95,8.78
13:05:22:332,6.47,6.17,0.83,8.98
13:05:22:341,6.34,6.18,1.14,8.93
13:05:22:350,6.01,6.44,1.29,8.90
13:05:22:361,5.87,6.87,0.81,9.07
13:05:22:371,5.64,6.80,1.02,8.89
13:05:22:382,5.50,6.71,0.51,8.69
13:05:22:392,5.03,6.79,0.57,8.47
13:05:22:401,4.94,6.43,0.34,8.12
13:05:22:410,4.89,6.46,-0.33,8.11
13:05:22:420,4.53,5.88,-0.34,7.43
13:05:22:428,4.53,5.75,-0.90,7.38
13:05:22:438,4.30,5.17,-1.36,6.86
13:05:22:449,3.86,4.80,-1.43,6.32
13:05:22:459,3.79,4.02,-2.06,5.90
13:05:22:470,3.73,3.66,-2.43,5.76
13:05:22:478,3.49,2.95,-2.54,5.23
13:05:22:488,3.38,2.48,-2.37,4.82
13:05:22:499,3.29,1.91,-2.37,4.48
13:05:22:508,3.02,1.40,-2.59,4.22
13:05:22:518,2.78,0.91,-2.42,3.80
13:05:22:526,2.72,0.50,-2.17,3.52
13:05:22:538,2.34,-0.16,-1.69,2.89
13:05:22:547,2.00,-0.61,-1.76,2.73
13:05:22:557,1.87,-0.71,-0.94,2.21
13:05:22:567,1.75,-1.07,-0.36,2.08
13:05:22:577,1.60,-1.36,-0.10,2.10
13:05:22:589,1.17,-1.62,0.49,2.06
13:05:22:599,0.74,-1.64,1.27,2.20
13:05:22:609,0.70,-1.97,1.42,2.53
13:05:22:618,0.20,-1.84,1.75,2.55
13:05:22:628,-0.23,-2.17,2.34,3.20
13:05:22:640,-0.54,-2.04,2.41,3.20
13:05:22:648,-0.94,-1.99,2.63,3.43
13:05:22:659,-1.46,-2.31,2.51,3.71
13:05:22:668,-1.64,-2.14,2.67,3.79
13:05:22:678,-2.08,-2.36,2.40,3.96
13:05:22:688,-2.44,-2.50,2.40,4.24
13:05:22:698,-3.22,-2.43,1.98,4.49
13:05:22:710,-3.51,-2.42,1.81,4.63
13:05:22:720,-4.07,-2.64,1.23,5.00
13:05:22:730,-4.74,-2.48,1.00,5.44
13:05:22:741,-5.20,-2.90,0.37,5.97
13:05:22:751,-5.64,-2.89,0.12,6.34
13:05:22:760,-6.24,-2.96,-0.41,6.92
13:05:22:770,-6.79,-3.03,-0.53,7.45
13:05:22:780,-7.02,-3.15,-0.72,7.73
13:05:22:789,-7.69,-3.34,-1.11,8.46
13:05:22:798,-8.00,-3.37,-1.02,8.74
13:05:22:807,-8.41,-3.44,-0.86,9.13
13:05:22:817,-8.66,-3.40,-1.18,9.38
13:05:22:827,-9.14,-3.60,-0.93,9.87
13:05:22:838,-9.58,-3.60,-0.57,10.25
13:05:22:849,-9.74,-3.81,-0.53,10.47
13:05:22:858,-10.23,-3.95,-0.49,10.98
13:05:22:869,-10.35,-4.13,0.04,11.14
13:05:22:880,-10.74,-4.23,0.30,11.55
13:05:22:889,-10.70,-4.09,0.77,11.48
13:05:22:900,-10.81,-4.36,0.86,11.69
13:05:22:909,-10.83,-4.51,1.07,11.78
13:05:22:920,-10.95,-4.66,0.97,11.94
13:05:22:931,-10.97,-4.54,1.27,11.94
13:05:22:940,-10.73,-4.69,1.19,11.77
13:05:22:951,-10.44,-4.81,0.67,11.51
13:05:22:962,-10.41,-4.87,0.74,11.52
13:05:22:973,-10.21,-5.17,0.57,11.46
13:05:22:983,-9.80,-5.09,0.10,11.04
13:05:22:994,-9.10,-5.42,-0.15,10.59
13:05:23:004,-9.01,-5.29,-0.88,10.49
13:05:23:014,-8.48,-5.49,-1.13,10.17
13:05:23:024,-7.98,-5.44,-1.51,9.78
13:05:23:034,-7.14,-5.66,-1.98,9.32
13:05:23:044,-6.68,-5.69,-2.04,9.01
13:05:23:053,-6.00,-5.63,-2.42,8.58
13:05:23:062,-5.42,-5.59,-2.45,8.16
13:05:23:073,-4.77,-5.85,-2.47,7.94
13:05:23:084,-3.90,-5.96,-2.47,7.54
13:05:23:094,-3.23,-6.02,-2.66,7.33
13:05:23:104,-2.51,-5.86,-2.48,6.84
13:05:23:114,-1.81,-5.81,-1.78,6.34
13:05:23:123,-1.27,-6.13,-1.54,6.45
13:05:23:134,-0.29,-6.04,-1.34,6.19
13:05:23:144,0.35,-6.11,-0.87,6.18
13:05:23:154,1.10,-5.84,-0.17,5.95
13:05:23:164,2.01,-6.13,0.17,6.45
13:05:23:173,2.46,-6.14,1.01,6.69
13:05:23:184,3.08,-5.89,1.15,6.75
13:05:23:194,3.90,-5.79,1.92,7.24
13:05:23:205,4.52,-5.84,2.18,7.70
13:05:23:214,4.91,-6.04,2.36,8.13
13:05:23:223,5.49,-5.91,2.58,8.47
13:05:23:233,6.09,-5.83,2.70,8.85
13:05:23:243,6.46,-5.64,2.50,8.93
13:05:23:255,7.18,-5.62,2.50,9.45
13:05:23:266,7.54,-5.76,2.08,9.71
13:05:23:274,7.72,-5.50,1.85,9.66
13:05:23:285,8.18,-5.20,1.96,9.89
13:05:23:295,8.10,-5.08,1.58,9.69
13:05:23:305,8.38,-4.74,1.12,9.69
13:05:23:315,8.78,-4.32,0.42,9.79
13:05:23:324,8.75,-3.95,0.31,9.61
13:05:23:334,8.71,-3.55,0.00,9.41
13:05:23:344,8.89,-3.14,-0.46,9.44
13:05:23:355,8.95,-2.64,-0.77,9.36
13:05:23:365,8.87,-2.06,-0.79,9.14
13:05:23:376,8.61,-1.37,-1.27,8.81
13:05:23:386,8.51,-0.54,-1.08,8.60
13:05:23:396,8.51,0.26,-1.16,8.59
13:05:23:406,8.24,0.98,-0.97,8.35
13:05:23:416,8.09,1.75,-0.74,8.31
13:05:23:426,8.10,2.25,-0.60,8.43
13:05:23:436,7.82,2.98,-0.12,8.37
13:05:23:445,7.51,3.51,0.11,8.29
13:05:23:455,7.56,4.26,0.32,8.68
13:05:23:464,7.17,4.94,0.57,8.73
13:05:23:473,7.12,5.39,0.65,8.95
13:05:23:482,6.82,5.68,0.71,8.90
13:05:23:493,6.57,6.00,1.13,8.97
13:05:23:504,6.23,6.58,0.87,9.10
13:05:23:513,6.08,6.80,1.11,9.19
13:05:23:522,5.72,6.88,1.07,9.01
13:05:23:532,5.49,6.76,0.67,8.73
13:05:23:541,5.50,6.76,0.53,8.73
13:05:23:553,5.02,6.69,0.47,8.38
13:05:23:561,4.89,6.62,0.27,8.23
13:05:23:571,4.82,6.12,-0.30,7.80
13:05:23:581,4.47,5.84,-0.62,7.38
13:05:23:590,4.31,5.35,-0.88,6.93
13:05:23:599,4.32,4.90,-1.31,6.66
13:05:23:609,3.90,4.52,-1.70,6.21
13:05:23:619,3.72,4.15,-1.96,5.91
13:05:23:631,3.74,3.47,-2.22,5.56
13:05:23:640,3.36,2.86,-2.35,5.00
13:05:23:651,3.18,2.22,-2.57,4.65
13:05:23:660,3.22,1.67,-2.53,4.42
13:05:23:670,2.83,1.30,-2.68,4.11
13:05:23:680,2.88,0.70,-2.53,3.90
13:05:23:689,2.64,0.11,-1.96,3.29
13:05:23:700,2.42,-0.17,-1.88,3.07
13:05:23:711,1.97,-0.45,-1.34,2.42
13:05:23:720,1.76,-1.07,-0.70,2.18
13:05:23:729,1.72,-1.02,-0.61,2.09
13:05:23:740,1.46,-1.60,0.21,2.18
13:05:23:752,0.94,-1.75,0.57,2.07
13:05:23:762,0.62,-1.66,1.24,2.16
13:05:23:773,0.28,-1.78,1.81,2.55
13:05:23:785,-0.14,-2.14,2.22,3.09
13:05:23:796,-0.43,-2.01,2.48,3.22
13:05:23:806,-0.80,-2.09,2.54,3.39
13:05:23:815,-1.12,-2.21,2.63,3.61
13:05:23:825,-1.72,-2.12,2.44,3.66
13:05:23:835,-2.12,-2.22,2.32,3.85
13:05:23:846,-2.66,-2.43,2.43,4.35
13:05:23:856,-3.04,-2.39,1.84,4.28
13:05:23:865,-3.53,-2.38,1.98,4.70
13:05:23:874,-3.68,-2.47,1.30,4.62
13:05:23:885,-4.41,-2.58,1.16,5.24
13:05:23:894,-4.98,-2.59,0.64,5.65
13:05:23:905,-5.34,-2.89,0.30,6.08
13:05:23:915,-5.69,-3.00,0.04,6.43
13:05:23:925,-6.28,-3.10,-0.52,7.02
13:05:23:936,-6.84,-2.99,-0.53,7.48
13:05:23:945,-7.41,-3.15,-0.76,8.09
13:05:23:954,-7.82,-3.10,-0.97,8.47
13:05:23:964,-8.28,-3.15,-1.03,8.92
13:05:23:975,-8.56,-3.56,-1.11,9.34
13:05:23:984,-8.92,-3.56,-0.74,9.63
13:05:23:993,-9.36,-3.64,-0.90,10.08
13:05:24:003,-9.57,-3.70,-0.79,10.29
13:05:24:012,-9.92,-3.67,-0.41,10.59
13:05:24:023,-10.21,-3.90,0.05,10.93
13:05:24:034,-10.60,-4.12,0.35,11.38
13:05:24:045,-10.81,-4.12,0.47,11.58
13:05:24:056,-10.95,-4.35,0.63,11.80
13:05:24:067,-10.78,-4.39,1.00,11.68
13:05:24:076,-10.84,-4.64,1.02,11.84
13:05:24:087,-10.78,-4.59,1.23,11.78
13:05:24:097,-10.71,-4.73,1.22,11.77
13:05:24:108,-10.56,-4.78,1.05,11.64
13:05:24:119,-10.48,-4.91,1.01,11.62
13:05:24:130,-10.09,-5.01,0.58,11.28
13:05:24:139,-10.01,-5.04,0.46,11.22
13:05:24:149,-9.46,-5.34,-0.07,10.86
13:05:24:160,-9.26,-5.21,-0.67,10.65
13:05:24:169,-8.51,-5.33,-0.84,10.08
13:05:24:179,-8.07,-5.38,-1.14,9.77
13:05:24:187,-7.84,-5.55,-1.64,9.74
13:05:24:197,-7.06,-5.73,-2.10,9.33
13:05:24:207,-6.46,-5.49,-2.28,8.78
13:05:24:217,-6.12,-5.59,-2.28,8.60
13:05:24:228,-5.20,-5.59,-2.72,8.10
13:05:24:238,-4.52,-5.83,-2.86,7.91
13:05:24:249,-3.71,-5.72,-2.37,7.22
13:05:24:260,-2.78,-5.77,-2.14,6.75
13:05:24:270,-2.16,-5.91,-1.97,6.59
13:05:24:280,-1.60,-5.81,-1.67,6.25
13:05:24:288,-0.83,-5.86,-1.37,6.07
13:05:24:298,-0.11,-6.13,-1.03,6.22
13:05:24:309,0.52,-6.13,-0.43,6.17
13:05:24:318,1.19,-6.03,0.06,6.15
13:05:24:329,2.03,-5.99,0.39,6.34
13:05:24:340,2.72,-5.93,0.87,6.58
13:05:24:350,3.40,-5.95,1.56,7.03
13:05:24:361,4.23,-5.82,1.94,7.45
13:05:24:371,4.91,-5.82,2.44,8.00
13:05:24:380,5.27,-6.03,2.37,8.35
13:05:24:390,5.86,-5.91,2.52,8.70
13:05:24:399,6.35,-5.68,2.43,8.86
13:05:24:409,6.74,-5.68,2.35,9.12
13:05:24:418,7.13,-5.87,2.30,9.52
13:05:24:430,7.32,-5.54,2.30,9.46
13:05:24:439,7.93,-5.58,2.23,9.95
13:05:24:448,7.94,-5.28,1.51,9.65
13:05:24:460,8.21,-4.85,1.12,9.60
13:05:24:469,8.50,-4.91,1.04,9.87
13:05:24:480,8.70,-4.26,0.40,9.70
13:05:24:491,8.88,-3.93,-0.14,9.71
13:05:24:502,8.78,-3.26,-0.08,9.37
13:05:24:511,9.03,-2.79,-0.73,9.48
13:05:24:520,8.91,-2.54,-0.81,9.30
13:05:24:529,8.95,-1.79,-0.80,9.16
13:05:24:538,8.76,-1.14,-0.89,8.88
13:05:24:548,8.53,-0.68,-0.84,8.60
13:05:24:557,8.39,0.15,-1.00,8.45
13:05:24:569,8.45,0.81,-1.11,8.56
13:05:24:579,8.20,1.53,-0.97,8.40
13:05:24:590,7.99,2.40,-0.44,8.35
13:05:24:601,7.73,3.13,-0.23,8.34
13:05:24:610,7.48,3.96,-0.13,8.46
13:05:24:620,7.35,4.34,0.10,8.54
13:05:24:629,7.07,4.91,0.42,8.62
13:05:24:638,7.08,5.38,0.58,8.91
13:05:24:649,6.56,5.95,0.82,8.89
13:05:24:658,6.60,6.40,0.93,9.24
13:05:24:667,6.35,6.53,1.19,9.19
13:05:24:676,5.97,6.80,1.04,9.11
13:05:24:687,5.86,6.67,1.16,8.95
13:05:24:697,5.56,6.89,0.83,8.89
13:05:24:705,5.33,6.67,0.54,8.56
13:05:24:716,5.21,6.78,0.57,8.57
13:05:24:725,5.02,6.48,0.13,8.20
13:05:24:736,4.58,6.00,-0.17,7.55
13:05:24:746,4.63,5.89,-0.86,7.54
13:05:24:756,4.12,5.35,-0.89,6.81
13:05:24:766,3.93,4.87,-1.43,6.42
13:05:24:776,3.90,4.18,-1.93,6.03
13:05:24:788,3.63,3.85,-2.32,5.78
13:05:24:799,3.48,3.10,-2.64,5.36
13:05:24:807,3.34,2.72,-2.79,5.13
13:05:24:817,3.16,1.88,-2.77,4.60
13:05:24:827,3.15,1.59,-2.68,4.43
13:05:24:835,2.99,1.02,-2.47,4.01
13:05:24:845,2.62,0.62,-2.36,3.58
13:05:24:854,2.41,0.22,-2.28,3.32
13:05:24:865,2.30,-0.19,-1.83,2.95
13:05:24:876,1.91,-0.56,-1.44,2.46
13:05:24:887,1.72,-1.18,-0.91,2.28
13:05:24:898,1.56,-1.22,-0.25,2.00
13:05:24:907,1.06,-1.68,0.40,2.03
13:05:24:917,1.06,-1.89,0.64,2.26
13:05:24:926,0.75,-1.92,1.46,2.53
13:05:24:936,0.33,-2.02,1.90,2.79
13:05:24:946,-0.05,-1.93,2.07,2.83
13:05:24:956,-0.34,-2.06,2.09,2.95
13:05:24:965,-0.75,-2.16,2.32,3.26
13:05:24:974,-0.93,-2.06,2.59,3.44
13:05:24:984,-1.42,-2.05,2.83,3.77
13:05:24:995,-1.98,-2.21,2.78,4.07
13:05:25:005,-2.27,-2.26,2.49,4.06
13:05:25:016,-2.83,-2.25,2.31,4.29
13:05:25:025,-3.42,-2.51,1.65,4.55
13:05:25:034,-3.76,-2.33,1.54,4.68
13:05:25:043,-4.20,-2.68,1.17,5.12
13:05:25:053,-4.50,-2.80,0.68,5.34
13:05:25:063,-5.26,-2.62,0.43,5.89
13:05:25:075,-5.79,-2.94,0.01,6.49
13:05:25:085,-6.13,-2.98,-0.14,6.82
13:05:25:094,-6.75,-3.00,-0.83,7.43
13:05:25:103,-7.06,-3.23,-0.92,7.82
13:05:25:114,-7.83,-3.23,-1.15,8.55
13:05:25:126,-8.23,-3.36,-1.20,8.97
13:05:25:136,-8.74,-3.56,-1.14,9.51
13:05:25:145,-8.88,-3.48,-1.04,9.59
13:05:25:155,-9.35,-3.64,-0.61,10.05
13:05:25:165,-9.82,-3.85,-0.72,10.57
13:05:25:177,-10.20,-3.75,-0.38,10.87
13:05:25:186,-10.34,-3.98,-0.29,11.08
13:05:25:195,-10.65,-4.22,-0.01,11.46
13:05:25:204,-10.63,-3.99,0.21,11.36
13:05:25:213,-10.58,-4.22,0.60,11.41
13:05:25:224,-10.71,-4.40,0.68,11.60
13:05:25:234,-10.69,-4.39,0.81,11.58
13:05:25:245,-10.48,-4.46,1.02,11.44
13:05:25:254,-10.40,-4.58,0.77,11.39
13:05:25:264,-9.95,-4.53,1.13,10.99
13:05:25:275,-9.93,-4.63,0.58,10.97
13:05:25:285,-9.37,-4.66,0.55,10.48
13:05:25:294,-9.21,-4.53,0.63,10.28
13:05:25:304,-8.69,-4.74,-0.07,9.90
13:05:25:314,-8.23,-4.81,-0.46,9.54
13:05:25:325,-7.96,-4.78,-0.60,9.30
13:05:25:334,-7.25,-4.75,-0.85,8.71
13:05:25:343,-6.71,-4.81,-1.27,8.35
13:05:25:355,-6.21,-4.66,-1.67,7.94
13:05:25:365,-5.62,-4.56,-1.67,7.43
13:05:25:375,-5.11,-4.57,-1.91,7.12
13:05:25:386,-4.56,-4.69,-2.14,6.88
13:05:25:394,-3.83,-4.56,-2.04,6.29
13:05:25:403,-3.24,-4.54,-1.91,5.90
13:05:25:412,-2.93,-4.57,-1.99,5.78
13:05:25:421,-2.42,-4.49,-1.91,5.45
13:05:25:430,-1.79,-4.60,-1.60,5.19
13:05:25:440,-1.12,-4.44,-1.40,4.79
13:05:25:450,-0.67,-4.47,-1.30,4.70
13:05:25:459,0.08,-4.35,-0.57,4.39
13:05:25:470,0.60,-4.29,-0.56,4.37
13:05:25:479,1.09,-4.48,0.07,4.61
13:05:25:487,1.41,-4.16,0.23,4.40
13:05:25:498,1.97,-4.37,0.78,4.86
13:05:25:508,2.47,-4.16,0.96,4.93
13:05:25:518,2.55,-4.03,1.37,4.96
13:05:25:528,3.08,-3.88,1.39,5.15
13:05:25:538,3.28,-4.06,1.43,5.41
13:05:25:547,3.77,-3.77,1.78,5.62
13:05:25:558,3.87,-3.79,1.84,5.72
13:05:25:569,4.30,-3.80,1.64,5.97
13:05:25:578,4.33,-3.60,1.76,5.90
13:05:25:587,4.58,-3.39,1.53,5.90
13:05:25:598,4.73,-3.44,1.44,6.02
13:05:25:608,4.90,-3.02,0.88,5.82
13:05:25:618,4.95,-3.11,1.01,5.93
13:05:25:629,4.83,-2.80,0.66,5.62
13:05:25:640,4.92,-2.51,0.50,5.55
13:05:25:651,4.71,-2.30,-0.03,5.24
13:05:25:661,4.63,-1.71,-0.11,4.94
13:05:25:672,4.76,-1.35,-0.11,4.95
13:05:25:682,4.73,-1.04,-0.33,4.85
13:05:25:691,4.57,-0.97,-0.59,4.71
13:05:25:701,4.37,-0.39,-0.63,4.43
13:05:25:711,4.27,-0.23,-0.30,4.29
13:05:25:721,4.15,0.13,-0.40,4.17
13:05:25:732,3.92,0.64,-0.63,4.02
13:05:25:741,3.70,0.72,-0.44,3.79
13:05:25:750,3.72,0.96,-0.19,3.85
13:05:25:760,3.38,1.56,-0.26,3.73
13:05:25:770,3.40,1.61,-0.01,3.76
13:05:25:781,3.17,2.01,0.22,3.76
13:05:25:793,2.97,2.09,0.04,3.63
13:05:25:804,2.80,2.13,0.21,3.52
13:05:25:815,2.68,2.36,0.57,3.62
13:05:25:825,2.51,2.31,0.17,3.42
13:05:25:835,2.20,2.29,0.19,3.18
13:05:25:844,2.02,2.25,0.51,3.07
13:05:25:853,2.02,2.34,0.39,3.12
13:05:25:864,1.96,2.20,0.20,2.95
13:05:25:873,1.72,2.12,0.31,2.75
13:05:25:882,1.41,2.23,-0.11,2.64
13:05:25:891,1.30,2.04,-0.32,2.44
13:05:25:901,1.35,1.84,-0.02,2.28
13:05:25:911,1.35,1.49,-0.22,2.02
13:05:25:920,1.31,1.51,-0.46,2.05
13:05:25:929,1.04,1.32,-0.42,1.73
13:05:25:940,0.99,1.05,-0.74,1.62
13:05:25:951,0.90,0.75,-0.67,1.35
13:05:25:962,0.67,0.57,-0.56,1.04
13:05:25:972,0.56,0.48,-0.42,0.85
13:05:25:981,0.68,0.30,-0.66,0.99
13:05:25:992,0.60,0.37,-0.74,1.02
13:05:26:003,0.65,0.10,-0.66,0.93
13:05:26:013,0.35,0.08,-0.47,0.59
13:05:26:022,0.53,0.09,-0.24,0.59
13:05:26:031,0.27,-0.06,-0.12,0.30
13:05:26:041,0.31,-0.27,-0.04,0.41
13:05:26:050,0.31,-0.25,0.13,0.42
13:05:26:059,0.07,-0.06,0.10,0.14
13:05:26:069,0.30,-0.37,0.16,0.50
13:05:26:078,0.26,-0.31,0.17,0.44
13:05:26:088,0.22,-0.17,0.25,0.37
13:05:26:097,-0.15,-0.08,0.30,0.34
13:05:26:107,0.04,-0.08,0.44,0.45
13:05:26:117,0.02,-0.09,0.04,0.10
13:05:26:127,0.07,-0.09,0.26,0.28
13:05:26:137,-0.19,-0.18,-0.02,0.26
13:05:26:146,-0.22,-0.27,-0.01,0.35
13:05:26:157,0.02,-0.05,0.32,0.32
13:05:26:167,-0.17,-0.23,0.03,0.29
13:05:26:177,-0.22,0.05,0.08,0.24
13:05:26:188,-0.19,-0.16,-0.12,0.28
13:05:26:198,0.04,-0.17,0.01,0.17
13:05:26:209,0.01,0.17,-0.24,0.29
13:05:26:220,0.09,-0.12,0.04,0.16
13:05:26:231,0.11,0.03,0.23,0.26
13:05:26:241,-0.17,-0.15,0.09,0.24
13:05:26:250,0.15,0.17,0.08,0.24
13:05:26:261,0.13,-0.17,0.03,0.22
13:05:26:270,0.15,0.07,-0.09,0.19
13:05:26:280,0.09,0.12,0.14,0.21
13:05:26:288,-0.04,-0.07,-0.06,0.10
13:05:26:298,-0.09,-0.17,-0.08,0.21
13:05:26:307,0.14,-0.16,0.02,0.21
13:05:26:317,-0.03,-0.15,0.24,0.28
13:05:26:328,-0.00,0.09,0.12,0.15
13:05:26:339,0.07,0.01,0.09,0.11
13:05:26:348,0.07,0.14,-0.19,0.25
13:05:26:358,0.07,0.05,0.15,0.17
13:05:26:369,0.04,0.03,-0.04,0.06
13:05:26:378,0.00,-0.10,0.06,0.12
13:05:26:387,0.09,-0.10,0.03,0.14
13:05:26:396,-0.04,0.17,0.14,0.22
13:05:26:406,-0.08,0.16,-0.23,0.29
13:05:26:415,0.14,-0.02,-0.20,0.24
13:05:26:425,0.12,0.10,-0.11,0.19
13:05:26:435,0.08,0.08,-0.15,0.19
13:05:26:445,-0.12,-0.08,0.09,0.17
13:05:26:455,-0.16,-0.11,-0.19,0.27
13:05:26:466,0.15,0.09,-0.20,0.27
13:05:26:475,0.16,0.16,0.01,0.23
13:05:26:486,-0.08,0.17,-0.22,0.29
13:05:26:496,0.05,-0.05,0.15,0.17
13:05:26:507,-0.17,-0.15,-0.09,0.24
13:05:26:516,-0.04,-0.06,-0.10,0.12
13:05:26:527,0.07,-0.15,0.05,0.17
13:05:26:537,-0.05,0.17,0.24,0.30
13:05:26:546,0.11,-0.07,-0.11,0.17
13:05:26:556,0.14,0.12,-0.14,0.23
13:05:26:566,-0.13,-0.09,-0.07,0.17
13:05:26:576,0.07,0.16,0.14,0.22
13:05:26:586,-0.04,-0.00,0.22,0.22
13:05:26:595,-0.11,0.12,-0.17,0.24
13:05:26:605,-0.05,0.03,-0.24,0.25
13:05:26:615,-0.01,0.09,-0.10,0.13
13:05:26:625,0.14,-0.15,-0.09,0.22
13:05:26:634,0.09,-0.14,0.12,0.21
13:05:26:644,-0.17,-0.05,0.09,0.20
13:05:26:653,-0.16,0.13,0.12,0.24
13:05:26:661,0.17,0.14,-0.05,0.23
13:05:26:673,0.02,0.07,-0.04,0.08
13:05:26:682,0.04,0.03,0.22,0.23
13:05:26:692,-0.05,-0.16,-0.23,0.28
13:05:26:702,0.12,0.15,-0.24,0.31
13:05:26:710,0.02,0.06,-0.24,0.25
13:05:26:722,0.03,0.04,0.16,0.17
13:05:26:733,-0.09,0.12,0.01,0.15
13:05:26:742,0.10,-0.09,0.10,0.17
13:05:26:752,-0.10,0.04,0.08,0.13
13:05:26:761,-0.13,0.06,0.16,0.21
13:05:26:770,0.03,0.09,0.01,0.10
13:05:26:781,0.12,-0.14,-0.09,0.21
13:05:26:792,-0.07,0.08,-0.19,0.22
13:05:26:802,-0.07,0.14,-0.04,0.16
13:05:26:813,-0.12,0.04,-0.15,0.20
13:05:26:822,0.04,-0.12,0.21,0.25
13:05:26:831,0.09,0.15,0.13,0.22
13:05:26:841,-0.13,-0.14,-0.11,0.22
13:05:26:851,0.01,-0.09,0.01,0.09
13:05:26:861,0.01,0.12,-0.02,0.12
13:05:26:871,-0.14,0.03,0.05,0.15
13:05:26:882,0.01,-0.06,0.22,0.23
13:05:26:891,-0.08,0.11,-0.11,0.17
13:05:26:900,-0.11,0.05,0.06,0.13
13:05:26:909,0.17,-0.13,0.00,0.21
13:05:26:921,-0.14,-0.09,0.23,0.28
13:05:26:930,-0.05,0.11,-0.14,0.18
13:05:26:938,0.04,0.11,0.07,0.14
13:05:26:948,-0.03,-0.15,-0.20,0.25
13:05:26:959,-0.17,0.01,0.02,0.17
13:05:26:968,0.13,0.07,0.23,0.27
13:05:26:979,-0.09,-0.06,0.11,0.15
13:05:26:988,-0.03,-0.15,-0.23,0.28
13:05:26:998,0.14,-0.03,0.24,0.28
13:05:27:007,0.16,0.15,0.02,0.22
13:05:27:019,0.15,0.08,0.04,0.17
13:05:27:028,-0.03,-0.10,0.22,0.24
13:05:27:038,0.09,0.12,0.04,0.16
13:05:27:049,0.12,0.06,-0.14,0.19
13:05:27:059,-0.11,-0.07,-0.04,0.14
13:05:27:067,0.16,-0.08,0.12,0.22
13:05:27:078,-0.14,-0.11,-0.05,0.18
13:05:27:088,0.06,-0.03,-0.17,0.18
13:05:27:098,-0.09,-0.05,-0.06,0.12
13:05:27:108,-0.10,-0.08,-0.20,0.24
13:05:27:118,-0.13,0.13,-0.20,0.27
13:05:27:128,0.15,0.09,-0.19,0.26
13:05:27:138,-0.13,-0.00,0.00,0.13
13:05:27:148,0.14,0.16,-0.09,0.23
13:05:27:158,-0.12,0.06,-0.16,0.21
13:05:27:167,-0.06,0.16,0.12,0.21
13:05:27:176,-0.10,0.11,0.06,0.16
13:05:27:185,0.17,0.05,0.16,0.24
13:05:27:195,-0.14,0.07,-0.17,0.23
13:05:27:206,0.13,0.10,0.06,0.17
13:05:27:214,-0.07,0.09,-0.12,0.17
13:05:27:224,0.16,0.13,-0.00,0.21
13:05:27:234,0.09,-0.06,-0.03,0.11
13:05:27:243,-0.08,-0.05,0.04,0.10
13:05:27:252,0.00,-0.09,0.04,0.10
13:05:27:262,-0.12,0.15,0.21,0.28
13:05:27:272,-0.03,0.14,0.06,0.16
13:05:27:282,-0.17,-0.02,-0.07,0.18
13:05:27:294,0.06,-0.03,0.15,0.16
13:05:27:305,0.03,-0.13,-0.17,0.22
13:05:27:315,-0.08,0.17,0.14,0.23
13:05:27:325,-0.17,0.06,0.04,0.18
13:05:27:334,0.15,0.16,-0.12,0.25
13:05:27:344,-0.13,0.05,0.13,0.19
13:05:27:355,-0.06,0.00,-0.19,0.20
13:05:27:364,-0.17,0.09,-0.23,0.30
13:05:27:373,-0.04,0.14,-0.11,0.18
13:05:27:383,-0.03,0.12,0.00,0.12
13:05:27:393,0.01,-0.05,0.07,0.09
13:05:27:403,-0.06,0.00,-0.09,0.11
13:05:27:414,-0.09,0.16,0.04,0.19
13:05:27:424,0.10,0.00,0.24,0.26
13:05:27:434,-0.08,0.11,0.25,0.28
13:05:27:443,-0.06,0.01,0.11,0.13
13:05:27:454,-0.00,0.12,-0.10,0.16
13:05:27:463,-0.08,-0.15,-0.01,0.17
13:05:27:473,0.08,-0.17,0.15,0.24
13:05:27:484,-0.15,-0.14,0.19,0.28
13:05:27:495,-0.06,-0.02,0.23,0.24
13:05:27:506,-0.03,-0.05,-0.06,0.08
13:05:27:517,-0.08,0.16,-0.08,0.20
13:05:27:526,0.12,0.17,-0.08,0.22
13:05:27:535,-0.05,-0.13,0.14,0.20
13:05:27:545,-0.03,0.12,0.23,0.26
13:05:27:554,-0.01,0.00,0.03,0.03
13:05:27:565,0.12,0.12,-0.03,0.17
13:05:27:573,-0.10,-0.05,0.08,0.14
13:05:27:583,0.12,0.10,-0.04,0.16
13:05:27:592,0.16,-0.17,0.04,0.24
13:05:27:601,-0.08,-0.01,-0.16,0.18
13:05:27:611,-0.12,-0.06,-0.20,0.24
13:05:27:619,0.10,-0.09,-0.05,0.14
13:05:27:631,-0.07,-0.07,-0.12,0.16
13:05:27:641,-0.10,-0.03,-0.17,0.20
13:05:27:651,-0.15,-0.00,0.23,0.27
13:05:27:662,0.04,0.01,0.10,0.11
13:05:27:673,0.15,0.08,-0.06,0.18
13:05:27:682,0.13,0.11,0.25,0.30
13:05:27:693,0.03,0.16,-0.20,0.26
13:05:27:704,-0.02,0.06,-0.08,0.10
13:05:27:715,0.17,-0.09,0.19,0.27
13:05:27:724,0.06,0.03,0.23,0.24
13:05:27:736,0.16,-0.02,0.15,0.22
13:05:27:747,0.07,-0.09,-0.16,0.20
13:05:27:756,0.07,-0.06,0.03,0.10
13:05:27:765,0.07,-0.09,-0.21,0.24
13:05:27:776,-0.13,0.01,-0.22,0.26
13:05:27:787,-0.09,-0.15,0.18,0.25
13:05:27:796,-0.15,0.02,-0.25,0.29
13:05:27:806,0.15,-0.03,-0.20,0.25
13:05:27:816,0.17,-0.17,-0.20,0.31
13:05:27:827,0.04,-0.08,0.11,0.14
13:05:27:836,-0.12,0.16,0.06,0.21
13:05:27:845,-0.13,0.03,-0.14,0.19
13:05:27:854,-0.02,-0.15,-0.04,0.16
13:05:27:864,-0.04,0.03,0.23,0.24
13:05:27:875,-0.11,0.07,-0.14,0.19
13:05:27:884,-0.14,-0.13,-0.22,0.29
13:05:27:894,0.05,-0.03,0.07,0.09
13:05:27:906,0.10,-0.10,-0.20,0.24
13:05:27:914,-0.15,0.01,0.03,0.15
13:05:27:923,-0.07,0.11,-0.12,0.18
13:05:27:934,-0.07,-0.09,-0.23,0.26
13:05:27:943,0.01,-0.13,0.08,0.15
13:05:27:954,0.04,-0.13,0.13,0.19
13:05:27:965,-0.03,0.04,-0.09,0.10
13:05:27:974,0.13,-0.15,-0.17,0.26
