time;ax;ay;az;aT
0,0104;0,0300;-0,0400;0,0100;0,0500
0,0216;0,0200;-0,0700;0,1600;0,1800
0,0324;0,0700;0,0900;0,1300;0,1700
0,0416;-0,0700;0,1200;0,0900;0,1700
0,0510;-0,0400;0,1300;-0,2400;0,2800
0,0621;-0,0900;-0,1200;-0,0300;0,1500
0,0706;-0,0700;-0,1100;-0,1300;0,1800
0,0816;-0,1100;-0,0100;0,0100;0,1100
0,0925;0,1400;0,1600;-0,1700;0,2700
0,1024;0,1400;0,0400;-0,1800;0,2300
0,1118;-0,0500;0,0400;0,2300;0,2400
0,1211;0,0700;-0,0600;0,1900;0,2100
0,1304;-0,0000;0,1700;-0,2000;0,2600
0,1402;-0,0800;-0,1100;0,1600;0,2100
0,1502;-0,0500;0,0200;-0,2200;0,2300
0,1604;0,1600;0,0600;-0,0800;0,1900
0,1719;-0,0600;0,1100;0,2500;0,2800
0,1827;0,0300;0,1100;0,2200;0,2500
0,1931;0,1600;-0,0400;-0,0200;0,1700
0,2046;-0,0700;-0,0800;0,1000;0,1500
0,2137;0,1100;0,1700;-0,0600;0,2100
0,2227;-0,1400;0,0200;0,1700;0,2200
0,2330;0,0800;-0,0800;-0,0900;0,1400
0,2417;0,1100;-0,1300;-0,1500;0,2300
0,2503;0,1200;0,1100;-0,1800;0,2400
0,2603;0,1700;0,1200;0,0700;0,2200
0,2702;0,0700;0,0200;0,0300;0,0800
0,2815;0,1700;-0,0400;0,2000;0,2700
0,2919;-0,0800;0,0600;-0,1800;0,2100
0,3019;0,0100;0,1700;0,1500;0,2300
0,3119;-0,1000;0,0300;0,2200;0,2400
0,3211;-0,1500;0,1000;0,1200;0,2200
0,3297;-0,0200;0,1300;-0,1900;0,2300
0,3388;0,0800;0,0900;-0,1700;0,2100
0,3493;0,1000;-0,0000;-0,2100;0,2300
0,3584;-0,1700;-0,1100;-0,0800;0,2200
0,3680;0,1500;0,0700;0,1300;0,2100
0,3766;-0,0900;0,1200;-0,1800;0,2300
0,3875;-0,0700;0,1600;-0,0300;0,1800
0,3965;0,1200;-0,1200;-0,2300;0,2900
0,4058;0,1400;-0,1400;0,0900;0,2200
0,4170;0,0800;0,0500;-0,2000;0,2200
0,4270;-0,0600;0,1100;0,1500;0,2000
0,4380;-0,0100;-0,1500;0,0600;0,1600
0,4484;0,1200;0,0400;-0,1500;0,2000
0,4592;-0,0500;-0,0800;0,1000;0,1400
0,4679;0,1100;0,1700;-0,0800;0,2200
0,4781;0,1000;-0,0500;0,0100;0,1100
0,4881;-0,0100;-0,1500;0,0300;0,1500
0,4992;0,1400;0,1000;-0,1100;0,2000
0,5088;-0,0400;-0,0700;-0,0400;0,0900
0,5191;0,0900;-0,0300;0,1400;0,1700
0,5278;0,0500;-0,1300;0,1800;0,2300
0,5374;-0,0600;-0,0600;0,1700;0,1900
0,5469;0,0100;-0,1300;0,0300;0,1300
0,5558;0,0400;-0,0800;0,1900;0,2100
0,5668;0,0100;0,0300;-0,1800;0,1800
0,5764;-0,1400;-0,0700;0,2400;0,2900
0,5879;0,1700;0,0600;-0,2300;0,2900
0,5981;0,1600;0,1400;0,2000;0,2900
0,6084;-0,1600;0,0300;0,1500;0,2200
0,6189;0,1600;-0,1600;-0,0500;0,2300
0,6294;0,0100;0,1600;0,1500;0,2200
0,6383;-0,1300;-0,1100;0,2300;0,2900
0,6482;0,1100;-0,0500;-0,1700;0,2100
0,6574;-0,0200;0,0100;0,0700;0,0700
0,6671;0,0700;0,0400;-0,2500;0,2600
0,6759;0,1100;-0,0600;0,0800;0,1500
0,6873;0,0100;-0,0200;-0,2200;0,2200
0,6964;-0,1600;0,0400;0,0800;0,1800
0,7069;0,1100;-0,0200;-0,2400;0,2600
0,7163;0,0700;-0,0800;-0,0500;0,1200
0,7275;0,1400;-0,0300;0,1800;0,2300
0,7380;-0,0800;-0,0400;-0,1000;0,1300
0,7468;0,1000;-0,0700;0,2300;0,2600
0,7579;0,1300;0,0400;-0,0100;0,1400
0,7692;-0,0500;0,0000;-0,1600;0,1700
0,7804;-0,0300;-0,0300;0,2200;0,2200
0,7906;-0,0600;0,0700;-0,1700;0,1900
0,7996;-0,1700;0,1100;0,0500;0,2100
0,8087;-0,0900;0,0500;0,2200;0,2400
0,8199;-0,0600;-0,0600;0,2200;0,2400
0,8301;-0,1400;0,1500;0,0300;0,2100
0,8391;0,0900;-0,1400;-0,1400;0,2200
0,8503;-0,0300;0,1100;0,0000;0,1100
0,8607;0,0200;-0,0300;-0,1000;0,1100
0,8709;-0,0800;-0,0400;-0,0900;0,1300
0,8806;-0,0500;0,1200;-0,0900;0,1600
0,8903;0,0900;0,0500;-0,1500;0,1800
0,8995;-0,0100;0,1700;-0,2300;0,2900
0,9081;0,0300;0,1300;0,1300;0,1900
0,9192;-0,0300;-0,1300;-0,2400;0,2700
0,9291;0,0200;0,0000;0,0400;0,0400
0,9393;0,1400;0,0900;-0,0700;0,1800
0,9488;-0,0800;-0,1500;0,0800;0,1900
0,9595;0,0100;0,0100;0,0400;0,0400
0,9681;0,0700;0,1700;-0,0100;0,1800
0,9777;-0,1400;-0,0900;0,1400;0,2200
0,9863;0,1600;-0,1300;0,0400;0,2100
0,9952;-0,0000;-0,0700;0,2000;0,2100
1,0066;-0,0900;-0,0500;0,0400;0,1100
1,0170;0,0900;-0,0700;0,1900;0,2200
1,0268;0,1100;-0,0200;0,1800;0,2100
1,0369;0,0500;0,1200;0,1000;0,1600
1,0480;0,1500;0,0100;-0,0900;0,1800
1,0575;-0,1400;0,0300;-0,0100;0,1400
1,0678;0,0100;-0,1400;-0,2100;0,2500
1,0784;0,0900;-0,1500;0,1100;0,2100
1,0879;0,1500;0,1600;0,0700;0,2300
1,0980;0,0500;-0,0500;0,1600;0,1700
1,1088;0,0400;0,1600;-0,2100;0,2700
1,1200;-0,0400;-0,0600;-0,1900;0,2000
1,1290;0,0300;0,0500;0,0700;0,0900
1,1403;0,0200;0,0600;0,1200;0,1400
1,1488;0,1400;-0,1400;-0,2100;0,2900
1,1595;0,1100;-0,1500;-0,2300;0,3000
1,1705;0,0800;-0,0200;-0,0900;0,1200
1,1794;0,1500;-0,1300;-0,0800;0,2100
1,1891;-0,1500;-0,0700;-0,2200;0,2800
1,2001;0,0900;-0,1100;-0,2000;0,2500
1,2086;-0,0100;-0,0700;-0,1500;0,1700
1,2190;0,0900;-0,0200;-0,2400;0,2600
1,2299;-0,0700;-0,0700;-0,1800;0,2100
1,2399;-0,0100;-0,0600;-0,2400;0,2500
1,2506;0,1100;-0,0000;-0,0700;0,1300
1,2598;-0,1600;0,0600;0,1200;0,2100
1,2689;-0,0700;-0,1600;0,0800;0,1900
1,2785;-0,0000;0,1700;0,0500;0,1800
1,2875;0,1200;-0,0200;-0,0200;0,1200
1,2971;-0,0800;0,1500;-0,1600;0,2300
1,3084;0,1100;-0,1700;-0,2300;0,3100
1,3186;-0,0900;-0,1500;-0,1600;0,2400
1,3281;-0,0700;-0,1400;0,2200;0,2700
1,3375;0,0200;0,1400;0,1600;0,2100
1,3488;0,0500;-0,0300;0,0300;0,0700
1,3586;0,1300;0,1200;0,0600;0,1900
1,3701;0,1300;0,0700;0,1200;0,1900
1,3801;-0,0900;-0,1400;0,1600;0,2300
1,3902;0,0900;-0,0500;-0,1300;0,1700
1,4014;0,0500;-0,0600;0,1500;0,1700
1,4121;-0,0400;-0,0200;0,0700;0,0800
1,4224;0,1000;0,0900;-0,1100;0,1700
1,4321;0,1400;-0,1500;-0,1100;0,2300
1,4433;-0,0100;0,1500;-0,1600;0,2200
1,4530;0,1500;-0,0100;0,0200;0,1500
1,4643;-0,1300;-0,0500;0,2300;0,2700
1,4730;-0,1200;0,0700;0,1400;0,2000
1,4828;0,0900;-0,0800;-0,1700;0,2100
1,4928;-0,0700;0,0700;-0,1900;0,2100
1,5042;0,0500;-0,0100;-0,1100;0,1200
1,5134;0,0600;0,0600;-0,1800;0,2000
1,5243;-0,0300;0,0100;-0,2200;0,2200
1,5349;0,2200;0,0400;0,0500;0,2300
1,5455;0,2500;0,2800;-0,2000;0,4300
1,5559;0,0700;0,1900;-0,1100;0,2300
1,5673;0,1300;0,1200;-0,2700;0,3200
1,5768;0,3400;0,2200;0,0400;0,4100
1,5865;0,3900;0,2300;-0,1700;0,4800
1,5956;0,3800;-0,0700;-0,4000;0,5600
1,6043;0,2600;0,1900;-0,0700;0,3300
1,6134;0,2100;-0,2000;-0,3000;0,4200
1,6247;0,2300;-0,0500;-0,1700;0,2900
1,6357;0,1200;-0,2300;-0,1900;0,3200
1,6445;0,2100;-0,2800;-0,0200;0,3500
1,6548;0,0900;-0,2500;-0,0300;0,2700
1,6648;0,0300;-0,2500;0,0700;0,2600
1,6751;0,0500;-0,3500;0,0800;0,3600
1,6855;-0,1200;-0,3000;0,5800;0,6600
1,6950;-0,0500;-0,2400;0,2800;0,3700
1,7063;-0,0600;-0,5500;0,4000;0,6800
1,7162;-0,1700;-0,5600;0,5200;0,7800
1,7266;-0,1800;-0,4600;0,4000;0,6400
1,7370;-0,3400;-0,5700;0,4600;0,8100
1,7461;-0,5500;-0,6400;0,5300;1,0000
1,7548;-0,5900;-0,6000;0,5800;1,0200
1,7645;-0,9100;-0,5800;0,5000;1,1900
1,7753;-0,9700;-0,5500;0,3200;1,1600
1,7862;-1,3600;-0,5900;0,3600;1,5300
1,7969;-1,5000;-0,6900;0,2700;1,6700
1,8058;-1,5300;-0,9100;-0,0800;1,7800
1,8170;-1,9100;-0,7800;-0,2200;2,0700
1,8279;-2,2000;-0,9100;-0,1400;2,3800
1,8390;-2,3700;-1,1700;-0,3400;2,6600
1,8491;-2,7900;-0,9700;-0,1900;2,9600
1,8604;-2,8900;-1,2900;-0,6300;3,2300
1,8690;-3,3900;-1,2100;-0,3600;3,6200
1,8776;-3,5200;-1,2700;-0,4400;3,7700
1,8862;-3,7500;-1,2600;-0,4600;3,9800
1,8954;-3,9400;-1,4200;-0,0600;4,1900
1,9047;-3,9100;-1,3900;-0,2900;4,1600
1,9137;-4,4300;-1,7900;0,0900;4,7800
1,9239;-4,5400;-1,8900;0,2500;4,9200
1,9325;-4,6100;-1,9100;0,4100;5,0100
1,9428;-4,7300;-1,8700;0,1000;5,0900
1,9518;-4,8400;-2,0100;0,2100;5,2400
1,9623;-5,1000;-2,2300;0,2600;5,5700
1,9709;-5,2400;-2,2700;0,4100;5,7300
1,9803;-5,0800;-2,2300;0,7100;5,5900
1,9917;-5,3800;-2,4100;0,5400;5,9200
2,0018;-5,4000;-2,3800;0,2100;5,9000
2,0127;-5,3000;-2,6000;0,0500;5,9000
2,0232;-5,1300;-2,5600;0,1900;5,7400
2,0335;-4,8500;-2,7100;-0,0900;5,5600
2,0426;-4,7800;-2,8900;-0,6000;5,6200
2,0528;-4,6500;-3,0400;-0,5600;5,5800
2,0614;-4,4700;-3,1800;-0,9600;5,5700
2,0723;-4,1200;-3,2600;-1,1600;5,3800
2,0837;-3,8000;-3,3400;-1,4900;5,2700
2,0948;-3,5200;-3,4500;-1,2200;5,0800
2,1034;-3,2800;-3,5900;-1,5700;5,1100
2,1129;-2,8600;-3,5700;-1,5400;4,8300
2,1224;-2,2500;-3,7800;-1,7400;4,7300
2,1312;-1,9000;-3,5900;-1,5900;4,3600
2,1416;-1,3500;-3,7900;-1,3100;4,2300
2,1525;-1,0700;-4,0300;-1,0300;4,2900
2,1619;-0,2800;-4,0200;-0,7000;4,0900
2,1730;0,1200;-4,1200;-0,6700;4,1800
2,1839;0,8900;-4,2200;-0,2900;4,3200
2,1928;1,2600;-4,1600;0,1300;4,3500
2,2036;1,8200;-4,3300;0,4900;4,7200
2,2148;2,5200;-4,3900;1,1500;5,1900
2,2239;2,9300;-4,2400;1,2200;5,3000
2,2341;3,4700;-4,3800;1,5100;5,7900
2,2445;3,8100;-4,3300;1,8000;6,0400
2,2548;4,4600;-4,4300;1,9700;6,5900
2,2636;4,7800;-4,4300;1,9200;6,7900
2,2741;5,1300;-4,5100;1,7400;7,0500
2,2845;5,5700;-4,4600;2,0000;7,4100
2,2955;6,0900;-4,3900;1,4900;7,6500
2,3064;6,3800;-4,3400;1,5900;7,8800
2,3159;6,8400;-4,0400;1,0100;8,0100
2,3265;6,8900;-4,0300;0,6600;8,0100
2,3376;7,1000;-3,7400;0,4200;8,0400
2,3488;7,6400;-3,3200;0,2300;8,3300
2,3578;7,5300;-2,8100;-0,3100;8,0400
2,3664;7,6900;-2,3900;-0,5000;8,0700
2,3768;7,6700;-1,9400;-0,7600;7,9500
2,3860;7,7000;-1,4800;-1,0600;7,9100
2,3962;7,7800;-0,7300;-1,0600;7,8900
2,4075;7,8900;0,1000;-0,7400;7,9300
2,4171;7,5700;0,5900;-0,6600;7,6200
2,4264;7,7800;1,4200;-0,8700;7,9600
2,4363;7,7300;2,1700;-0,3400;8,0400
2,4467;7,4400;2,8300;-0,5400;7,9800
2,4555;7,2500;3,3800;0,0500;8,0000
2,4652;7,0500;4,2100;-0,0200;8,2100
2,4741;6,8800;4,6600;0,4200;8,3200
2,4846;6,7400;5,3300;0,6700;8,6200
2,4955;6,7100;5,9600;0,8900;9,0200
2,5052;6,1900;6,4900;1,2500;9,0600
2,5148;6,2100;6,4700;1,0000;9,0200
2,5249;5,9100;6,6200;0,7800;8,9100
2,5341;5,4600;6,8400;0,7100;8,7800
2,5433;5,2400;6,9600;0,8300;8,7500
2,5528;5,2500;6,5400;0,2600;8,3900
2,5627;5,0000;6,5300;-0,1200;8,2300
2,5714;4,6800;6,0600;-0,3900;7,6700
2,5822;4,6300;5,8300;-0,4400;7,4600
2,5924;4,1900;5,2200;-1,1500;6,7900
2,6018;4,0700;4,9200;-1,6800;6,6000
2,6105;3,7900;4,3400;-1,7500;6,0200
2,6213;3,7700;3,8100;-2,2400;5,8100
2,6302;3,4000;3,1300;-2,3700;5,1900
2,6391;3,2600;2,5100;-2,3000;4,7100
2,6480;3,2900;2,0100;-2,5100;4,6000
2,6568;3,0300;1,5200;-2,5800;4,2600
2,6680;2,8600;0,8400;-2,2100;3,7100
2,6773;2,6900;0,3600;-2,2300;3,5100
2,6867;2,4400;0,0200;-1,9500;3,1200
2,6977;2,0500;-0,5000;-1,3000;2,4800
2,7081;1,9700;-0,7600;-0,7500;2,2400
2,7171;1,5300;-1,1600;-0,3900;1,9600
2,7269;1,3100;-1,4100;-0,0300;1,9200
2,7381;1,0400;-1,5900;0,6000;1,9900
2,7477;0,6200;-1,6900;0,9000;2,0100
2,7583;0,2500;-1,9100;1,5000;2,4400
2,7671;0,1200;-2,1800;2,1200;3,0400
2,7778;-0,2600;-2,1000;2,3000;3,1300
2,7886;-0,8300;-2,3000;2,7000;3,6400
2,7996;-1,3000;-2,1500;2,7000;3,6900
2,8101;-1,8500;-2,3900;2,6100;3,9900
2,8197;-2,2000;-2,2800;2,6000;4,1000
2,8284;-2,6100;-2,4700;2,2500;4,2400
2,8385;-2,9900;-2,2900;2,0300;4,2800
2,8493;-3,8700;-2,6400;1,5500;4,9300
2,8583;-4,0500;-2,5100;1,1100;4,8900
2,8676;-4,5200;-2,5800;0,9200;5,2900
2,8777;-5,3000;-2,8200;0,1500;6,0100
2,8885;-5,7500;-2,8000;0,1800;6,4000
2,8997;-6,3200;-3,0100;-0,2200;7,0000
2,9086;-6,8500;-3,1200;-0,5300;7,5500
2,9176;-7,4400;-3,2100;-0,9100;8,1500
2,9285;-7,8700;-3,4200;-1,0600;8,6500
2,9389;-8,2800;-3,3000;-1,1200;8,9800
2,9496;-9,0200;-3,6300;-1,0300;9,7800
2,9611;-9,3600;-3,7200;-0,9900;10,1200
2,9724;-9,9300;-3,8900;-0,4600;10,6700
2,9834;-10,0000;-3,7700;-0,1200;10,6900
2,9943;-10,3100;-3,9900;0,0000;11,0600
3,0040;-10,7800;-4,1200;0,4600;11,5500
3,0144;-10,7100;-4,2100;0,4600;11,5200
3,0234;-10,8200;-4,2300;0,9500;11,6600
3,0342;-11,0800;-4,4200;1,1900;11,9900
3,0450;-10,9200;-4,5800;1,1400;11,9000
3,0557;-10,7800;-4,7700;1,2900;11,8600
3,0655;-10,7600;-4,8100;1,0900;11,8400
3,0751;-10,5000;-4,7400;0,9100;11,5600
3,0849;-10,0800;-4,9900;0,5500;11,2600
3,0935;-9,9200;-5,1100;0,0800;11,1600
3,1045;-9,5500;-5,0700;-0,3000;10,8200
3,1146;-9,2600;-5,4500;-0,3600;10,7500
3,1243;-8,7600;-5,5400;-1,1000;10,4200
3,1344;-7,9500;-5,3600;-1,2700;9,6700
3,1451;-7,3500;-5,3900;-1,9500;9,3200
3,1548;-6,7100;-5,7700;-1,9700;9,0700
3,1657;-6,0500;-5,8600;-2,1600;8,7000
3,1770;-5,2400;-5,9300;-2,5100;8,3000
3,1867;-4,5300;-5,7800;-2,8500;7,8800
3,1956;-3,7700;-5,9800;-2,4500;7,4800
3,2064;-3,0700;-5,8700;-2,4100;7,0500
3,2178;-2,0900;-5,8800;-1,9100;6,5300
3,2268;-1,3800;-6,1300;-1,9300;6,5700
3,2374;-0,4600;-5,8500;-1,4000;6,0300
3,2484;0,2600;-6,0800;-0,5200;6,1100
3,2597;1,0800;-5,9800;0,0500;6,0800
3,2685;1,7800;-6,0500;0,5800;6,3300
3,2773;2,4700;-6,0500;0,8500;6,5900
3,2888;3,5300;-6,0100;1,5000;7,1300
3,2976;4,0900;-6,1300;2,0100;7,6400
3,3067;4,6900;-5,9600;2,2000;7,9000
3,3169;5,2200;-5,9800;2,1900;8,2300
3,3267;5,6600;-5,9100;2,3900;8,5300
3,3375;6,3500;-5,9200;2,3700;9,0000
3,3465;6,9300;-5,8100;2,3700;9,3500
3,3578;7,2900;-5,5800;2,1500;9,4300
3,3669;7,6700;-5,3600;2,1000;9,5900
3,3777;7,9400;-5,4400;1,8600;9,8000
3,3864;8,1000;-5,0100;1,6500;9,6700
3,3964;8,4900;-4,8100;1,0100;9,8100
3,4050;8,6000;-4,6900;0,5200;9,8100
3,4144;8,6800;-4,3300;0,5000;9,7100
3,4238;8,7400;-3,5800;0,1300;9,4500
3,4345;8,9400;-3,2200;-0,2100;9,5000
3,4444;8,8100;-2,6600;-0,9600;9,2500
3,4530;8,8700;-1,8900;-0,8600;9,1100
3,4645;8,6700;-1,0600;-0,9800;8,7900
3,4757;8,7200;-0,1500;-1,0500;8,7800
3,4869;8,4200;0,6000;-1,1400;8,5200
3,4962;8,2900;1,2600;-0,6300;8,4100
3,5059;8,2600;2,0300;-0,6100;8,5300
3,5150;7,9900;2,7000;-0,6300;8,4600
3,5239;7,7900;3,5100;-0,2200;8,5500
3,5325;7,4400;4,2200;0,2200;8,5600
3,5425;7,3700;4,5700;0,2500;8,6800
3,5514;6,9800;5,2000;0,7600;8,7400
3,5604;6,9500;5,6500;0,6700;8,9800
3,5715;6,6200;6,0200;0,9600;9,0000
3,5815;6,2800;6,5200;0,9600;9,1000
3,5905;6,1000;6,8600;0,8700;9,2200
3,6010;5,7300;6,7400;1,1500;8,9200
3,6103;5,5700;6,9100;0,7100;8,9000
3,6204;5,1100;6,8800;0,6600;8,6000
3,6297;5,1900;6,4900;0,4200;8,3200
3,6398;4,8900;6,4300;-0,2600;8,0800
3,6502;4,4300;6,0000;-0,8300;7,5000
3,6603;4,2500;5,5100;-1,0100;7,0300
3,6700;4,1700;4,8700;-1,5600;6,6000
3,6808;4,0100;4,2900;-1,6500;6,1000
3,6920;3,5800;3,5700;-2,3600;5,5800
3,7010;3,6900;3,3000;-2,3000;5,4600
3,7099;3,3000;2,7100;-2,7900;5,1000
3,7188;3,3600;1,9200;-2,7300;4,7400
3,7302;3,0400;1,3900;-2,7200;4,3100
3,7415;2,7200;0,6500;-2,2000;3,5600
3,7507;2,4800;0,3600;-2,0700;3,2500
3,7621;2,1300;-0,2400;-1,6200;2,6900
3,7712;1,9100;-0,4900;-1,4900;2,4700
3,7813;1,8500;-0,9200;-0,8700;2,2400
3,7913;1,6300;-1,4400;-0,0400;2,1800
3,8025;1,3500;-1,6100;0,4500;2,1500
3,8111;0,8900;-1,7000;0,9800;2,1500
3,8206;0,7800;-1,7200;1,3300;2,3100
3,8309;0,1900;-2,0200;1,6300;2,6000
3,8396;0,0900;-2,1500;2,3100;3,1600
3,8488;-0,2800;-2,1700;2,2400;3,1300
3,8587;-0,9600;-2,2300;2,3800;3,4000
3,8698;-1,2000;-2,3100;2,6900;3,7400
3,8806;-1,7600;-2,3000;2,3500;3,7300
3,8916;-2,2900;-2,4000;2,5100;4,1600
3,9024;-2,7900;-2,3800;2,2000;4,2800
3,9130;-3,4500;-2,3200;1,6700;4,4800
3,9240;-4,0500;-2,3900;1,3000;4,8800
3,9346;-4,6700;-2,7600;0,8400;5,4900
3,9453;-5,0800;-2,7100;0,1800;5,7600
3,9547;-5,5800;-2,7600;-0,2000;6,2300
3,9637;-6,3300;-3,0300;-0,3900;7,0300
3,9745;-6,6900;-3,0000;-0,8900;7,3900
3,9835;-7,3400;-3,2100;-1,0100;8,0700
3,9947;-7,9400;-3,2800;-1,0800;8,6600
4,0050;-8,4300;-3,4000;-1,0100;9,1500
4,0145;-8,7300;-3,3400;-1,0300;9,4000
4,0258;-9,3100;-3,6700;-1,0600;10,0600
4,0348;-9,6700;-3,6700;-0,6000;10,3600
4,0448;-10,0700;-3,7700;-0,3400;10,7600
4,0536;-10,2600;-3,9600;-0,1600;11,0000
4,0650;-10,3900;-3,8900;0,1900;11,1000
4,0752;-10,8600;-4,2200;0,2600;11,6500
4,0861;-10,8500;-4,3500;0,8400;11,7200
4,0955;-10,8900;-4,3300;0,9000;11,7500
4,1064;-11,1000;-4,5200;0,8500;12,0200
4,1170;-10,9700;-4,5600;1,1600;11,9400
4,1274;-10,6400;-4,8800;1,0900;11,7600
4,1388;-10,4100;-5,0000;0,9100;11,5800
4,1486;-10,2200;-4,9000;0,6400;11,3500
4,1583;-10,1600;-5,1200;0,5000;11,3900
4,1689;-9,5600;-5,0600;0,1000;10,8200
4,1799;-9,2000;-5,3800;-0,4100;10,6700
4,1894;-8,8300;-5,4600;-1,0800;10,4400
4,1999;-8,1600;-5,3300;-1,4500;9,8500
4,2090;-7,4600;-5,5800;-1,4400;9,4300
4,2192;-6,8400;-5,7400;-2,0800;9,1700
4,2300;-6,2800;-5,7700;-2,2700;8,8300
4,2387;-5,7700;-5,6300;-2,6900;8,5000
4,2494;-4,6900;-5,8700;-2,5700;7,9400
4,2579;-4,0100;-5,8100;-2,5500;7,5100
4,2693;-3,2800;-5,7600;-2,3400;7,0300
4,2792;-2,5900;-5,8800;-2,0100;6,7300
4,2889;-1,6900;-5,8600;-1,9400;6,4000
4,2996;-0,7700;-5,8100;-1,5700;6,0700
4,3097;-0,0400;-6,0600;-1,1600;6,1700
4,3204;0,7700;-5,8700;-0,5000;5,9400
4,3291;1,4100;-5,9800;0,0400;6,1400
4,3393;2,2100;-6,1000;0,8600;6,5400
4,3495;2,8700;-6,1100;1,1600;6,8500
4,3608;3,7400;-6,0200;1,7600;7,3000
4,3694;4,5600;-6,0700;2,1300;7,8900
4,3792;4,8500;-5,8100;2,0700;7,8500
4,3896;5,7100;-5,8500;2,3900;8,5200
4,3998;6,2900;-5,9800;2,6300;9,0700
4,4085;6,5900;-5,6400;2,3800;8,9900
4,4188;7,1200;-5,6600;2,3000;9,3800
4,4280;7,3600;-5,6100;2,4100;9,5600
4,4371;7,8400;-5,5800;2,1100;9,8500
4,4482;8,1900;-5,2400;1,4400;9,8300
4,4573;8,4300;-4,8500;1,0600;9,7800
4,4671;8,5400;-4,6400;1,0100;9,7700
4,4779;8,8700;-4,2600;0,3600;9,8500
4,4885;8,9400;-3,7100;-0,1400;9,6800
4,4987;8,8900;-3,1800;-0,3000;9,4500
4,5096;8,9400;-2,4900;-0,6300;9,3000
4,5195;8,7500;-1,9800;-0,6700;9,0000
4,5299;8,9100;-1,2500;-1,2400;9,0800
4,5408;8,6800;-0,4700;-0,9300;8,7400
4,5513;8,6100;0,6500;-1,0100;8,6900
4,5618;8,2200;1,1900;-0,9600;8,3600
4,5715;8,2700;2,0500;-0,6200;8,5400
4,5817;7,7400;2,9500;-0,6000;8,3000
4,5914;7,6600;3,6300;-0,2600;8,4800
4,6021;7,2500;4,5100;0,0400;8,5400
4,6117;7,0300;4,8700;0,6000;8,5700
4,6216;6,9700;5,3800;0,8500;8,8500
4,6324;6,4400;5,8900;0,8100;8,7600
4,6424;6,2900;6,3700;0,9500;9,0000
4,6519;5,9700;6,5500;1,2000;8,9400
4,6629;5,9200;6,7800;0,9400;9,0500
4,6725;5,4000;6,9000;0,7700;8,8000
4,6836;5,2200;6,7000;0,8000;8,5300
4,6944;5,1400;6,6300;0,2500;8,3900
4,7043;4,8600;6,1300;-0,1200;7,8200
4,7149;4,6300;5,9300;-0,5300;7,5400
4,7235;4,5400;5,6800;-1,1800;7,3700
4,7332;4,0000;5,2100;-1,4100;6,7200
4,7443;4,0000;4,4700;-1,6500;6,2200
4,7545;3,8300;4,0100;-2,0600;5,9200
4,7647;3,6300;3,1200;-2,2000;5,2700
4,7752;3,4200;2,4900;-2,6600;5,0000
4,7857;2,9900;1,9000;-2,6300;4,4100
4,7960;2,7900;1,3200;-2,6800;4,0900
4,8057;2,8300;0,8800;-2,5400;3,9000
4,8148;2,5800;0,2700;-2,3400;3,4900
4,8241;2,2400;-0,3100;-1,9500;2,9900
4,8335;1,9400;-0,4900;-1,5600;2,5400
4,8433;1,8700;-1,0200;-0,9300;2,3200
4,8548;1,4100;-1,1400;-0,3300;1,8400
4,8644;1,3700;-1,6200;0,3800;2,1600
4,8742;0,9200;-1,7800;0,9200;2,2000
4,8838;0,7700;-1,9800;1,2900;2,4900
4,8941;0,1600;-2,0300;1,8100;2,7200
4,9054;-0,1200;-2,0100;2,1300;2,9300
4,9166;-0,7100;-2,1900;2,3400;3,2800
4,9262;-0,8800;-2,3100;2,5800;3,5700
4,9355;-1,3700;-2,1700;2,6800;3,7100
4,9467;-2,0100;-2,1700;2,7600;4,0500
4,9567;-2,2400;-2,4500;2,5200;4,1700
4,9672;-2,8800;-2,4100;1,8600;4,1900
4,9759;-3,4500;-2,6000;1,8500;4,7000
4,9870;-3,8600;-2,7100;1,1400;4,8500
4,9965;-4,5400;-2,6600;1,0100;5,3600
5,0065;-4,8900;-2,7800;0,6900;5,6700
5,0155;-5,6100;-2,6600;0,2400;6,2100
5,0253;-5,9000;-3,0500;-0,4200;6,6500
5,0363;-6,8200;-2,9400;-0,6200;7,4500
5,0473;-7,1600;-3,0200;-1,0000;7,8300
5,0572;-7,8200;-3,2400;-0,9200;8,5100
5,0680;-8,3000;-3,3300;-0,9600;8,9900
5,0779;-8,6800;-3,5300;-0,9200;9,4200
5,0875;-9,2900;-3,6400;-1,0100;10,0300
5,0976;-9,6300;-3,8200;-0,7100;10,3800
5,1067;-9,9900;-3,6300;-0,6900;10,6500
5,1162;-10,0700;-4,0500;-0,0700;10,8500
5,1268;-10,5300;-4,1400;0,2500;11,3200
5,1376;-10,6600;-4,0600;0,1100;11,4100
5,1463;-10,8600;-4,2500;0,6000;11,6800
5,1570;-11,0000;-4,3600;0,9200;11,8700
5,1679;-10,8000;-4,5600;0,8500;11,7500
5,1778;-10,9200;-4,7200;0,8300;11,9300
5,1865;-10,8000;-4,6000;0,8100;11,7700
5,1970;-10,6300;-4,9500;1,0700;11,7700
5,2062;-10,3900;-4,9800;0,5700;11,5400
5,2167;-10,3100;-4,9300;0,4900;11,4400
5,2263;-10,0600;-5,1900;0,3800;11,3300
5,2367;-9,5100;-5,0600;-0,3800;10,7800
5,2460;-9,2000;-5,4200;-0,4400;10,6900
5,2559;-8,7600;-5,3800;-1,0000;10,3300
5,2660;-7,8900;-5,4600;-1,4500;9,7000
5,2764;-7,3600;-5,5500;-1,8000;9,3900
5,2855;-6,8500;-5,5200;-2,1800;9,0600
5,2969;-6,1700;-5,8500;-2,2200;8,7900
5,3063;-5,2800;-5,7300;-2,4700;8,1700
5,3157;-4,6500;-5,7000;-2,6700;7,8300
5,3249;-4,0600;-6,0000;-2,7700;7,7600
5,3336;-3,1000;-5,8700;-2,4600;7,0800
5,3434;-2,3300;-5,9400;-1,9900;6,6800
5,3542;-1,4600;-5,9800;-1,6800;6,3800
5,3649;-0,6400;-5,9600;-1,6400;6,2100
5,3739;-0,0100;-5,9400;-1,0500;6,0300
5,3829;0,6200;-5,9300;-0,5200;5,9800
5,3923;1,4800;-5,8600;-0,0300;6,0400
5,4031;2,1300;-5,9400;0,4100;6,3200
5,4131;3,0300;-5,8100;0,9700;6,6200
5,4244;3,6300;-5,9100;1,6700;7,1300
5,4348;4,3100;-6,0200;2,1700;7,7200
5,4452;5,2000;-6,0300;2,4600;8,3300
5,4560;5,7000;-6,0100;2,6400;8,6900
5,4667;6,4000;-5,8900;2,7000;9,1100
5,4763;6,8900;-5,8800;2,3200;9,3500
5,4855;7,3100;-5,6000;2,2900;9,4900
5,4954;7,6200;-5,4800;2,1200;9,6200
5,5053;8,0300;-5,3400;1,7600;9,8000
5,5142;8,2200;-5,2300;1,5000;9,8600
5,5241;8,5500;-4,9300;1,1000;9,9300
5,5345;8,7400;-4,6500;0,6200;9,9200
5,5434;8,5600;-4,0500;0,0800;9,4700
5,5523;8,7300;-3,9500;0,1500;9,5800
5,5613;8,8200;-3,3600;-0,1200;9,4400
5,5707;8,7900;-2,7200;-0,5800;9,2200
5,5821;8,7300;-2,1100;-1,0000;9,0400
5,5906;8,9200;-1,2700;-1,0400;9,0700
5,5997;8,5300;-0,7300;-0,8600;8,6000
5,6087;8,4700;-0,0700;-1,0000;8,5300
5,6186;8,5200;0,6000;-0,8600;8,5800
5,6272;8,1800;1,3600;-0,7100;8,3200
5,6370;7,9900;2,2500;-0,3600;8,3100
5,6460;8,0400;2,8300;-0,2800;8,5300
5,6553;7,7600;3,4300;-0,2900;8,4900
5,6662;7,3800;4,3700;0,2300;8,5800
5,6753;7,0400;4,8400;0,6900;8,5700
5,6856;6,8100;5,6100;0,5400;8,8400
5,6953;6,8100;6,0100;0,6900;9,1100
5,7051;6,4800;6,3900;0,8000;9,1400
5,7160;5,9400;6,7500;0,8500;9,0300
5,7250;5,9300;6,8700;0,8500;9,1200
5,7363;5,5300;6,7700;1,0000;8,8000
5,7475;5,3700;6,8000;0,6500;8,6900
5,7580;4,9800;6,5100;0,3900;8,2100
5,7666;4,7200;6,2700;-0,0200;7,8500
5,7771;4,4400;5,9100;-0,5500;7,4100
5,7874;4,3200;5,4400;-0,7700;6,9900
5,7982;4,2900;4,9500;-1,5400;6,7300
5,8074;4,1200;4,4500;-1,8000;6,3300
5,8187;3,8200;3,9400;-2,1600;5,9000
5,8299;3,6300;3,1100;-2,3100;5,3100
5,8387;3,2600;2,4900;-2,4200;4,7600
5,8482;3,1300;2,0400;-2,5800;4,5400
5,8568;3,1600;1,4500;-2,5400;4,3100
5,8678;2,9600;1,0000;-2,5500;4,0300
5,8790;2,5400;0,2400;-2,1100;3,3100
5,8905;2,4000;-0,1900;-1,5800;2,8800
5,9008;2,2100;-0,7500;-1,3200;2,6800
5,9113;1,9600;-1,0200;-0,6300;2,3000
5,9219;1,4300;-1,2000;-0,1800;1,8800
5,9321;1,2600;-1,6400;0,3900;2,1000
5,9434;0,8100;-1,7600;1,0400;2,2000
5,9537;0,4900;-1,9300;1,3100;2,3800
5,9633;0,1500;-2,1500;1,7400;2,7700
5,9733;-0,3000;-2,2300;2,0600;3,0500
5,9818;-0,7300;-1,9900;2,4500;3,2400
5,9925;-0,9200;-2,2100;2,6700;3,5900
6,0031;-1,4200;-2,1400;2,7100;3,7300
6,0129;-1,8300;-2,2900;2,3800;3,7800
6,0239;-2,6100;-2,2100;2,2400;4,0900
6,0347;-3,1300;-2,5100;1,8400;4,4100
6,0442;-3,5000;-2,4800;1,7600;4,6400
6,0529;-3,8400;-2,5200;1,3000;4,7700
6,0618;-4,4800;-2,5100;0,8500;5,2100
6,0709;-5,0700;-2,8600;0,4400;5,8400
6,0803;-5,4500;-2,8300;0,4100;6,1500
6,0901;-5,8600;-2,8800;-0,2000;6,5300
6,1014;-6,4900;-2,9500;-0,3100;7,1400
6,1108;-6,9700;-3,2000;-0,8800;7,7200
6,1219;-7,7100;-3,1800;-1,1300;8,4200
6,1325;-8,2800;-3,2400;-0,9600;8,9400
6,1435;-8,5700;-3,3500;-0,8400;9,2400
6,1533;-9,0200;-3,6400;-1,1100;9,7900
6,1618;-9,3300;-3,6600;-0,6100;10,0400
6,1726;-9,8800;-3,8400;-0,5100;10,6100
6,1819;-10,2100;-3,9200;-0,1000;10,9400
6,1908;-10,4700;-4,0300;0,1800;11,2200
6,2017;-10,4900;-3,9600;0,2400;11,2200
6,2123;-10,6400;-4,4100;0,7800;11,5400
6,2214;-10,9400;-4,1800;0,6100;11,7300
6,2307;-10,8100;-4,6100;0,9100;11,7900
6,2420;-10,9800;-4,7200;1,0200;11,9900
6,2513;-10,8900;-4,7800;0,9400;11,9300
6,2619;-10,7000;-4,8700;0,9800;11,8000
6,2708;-10,6500;-4,7700;0,9800;11,7100
6,2818;-10,3600;-4,8800;0,4000;11,4600
6,2906;-10,0800;-4,9400;0,3100;11,2300
6,3007;-9,7100;-5,2300;-0,0300;11,0300
6,3093;-9,2500;-5,4400;-0,5400;10,7400
6,3194;-8,9100;-5,3100;-0,7500;10,4000
6,3305;-8,0800;-5,3100;-1,4100;9,7700
6,3392;-7,7800;-5,6600;-1,6000;9,7500
6,3485;-7,1100;-5,4700;-1,9400;9,1800
6,3593;-6,3200;-5,8400;-2,1600;8,8700
6,3696;-5,7700;-5,6500;-2,2800;8,3900
6,3791;-4,9900;-5,7800;-2,3900;8,0000
6,3895;-4,1400;-5,6900;-2,6000;7,5000
6,3993;-3,3800;-5,7400;-2,6100;7,1500
6,4104;-2,3800;-6,0800;-2,3800;6,9500
6,4198;-1,6700;-5,9500;-1,8100;6,4400
6,4306;-1,0300;-6,0600;-1,3800;6,3000
6,4410;0,0500;-6,0100;-0,8600;6,0700
6,4517;0,8000;-6,1500;-0,2800;6,2100
6,4613;1,5900;-6,0500;0,1200;6,2600
6,4720;2,2200;-6,0300;0,8600;6,4800
6,4826;3,1000;-6,1600;1,2900;7,0200
6,4923;3,8500;-5,9700;1,7200;7,3100
6,5008;4,4600;-5,8000;2,1600;7,6300
6,5122;5,1700;-6,0600;2,4100;8,3200
6,5229;5,5900;-5,7100;2,6700;8,4300
6,5320;6,2900;-5,8300;2,8300;9,0300
6,5427;6,7300;-5,8600;2,5300;9,2800
6,5520;7,1800;-5,5200;2,5900;9,4200
6,5619;7,6300;-5,5800;2,1500;9,6900
6,5730;7,8500;-5,4200;1,9000;9,7300
6,5829;8,3200;-5,2300;1,7300;9,9800
6,5922;8,5300;-4,8000;1,4000;9,8900
6,6016;8,6800;-4,7500;0,9900;9,9400
6,6104;8,6600;-4,3700;0,5300;9,7100
6,6195;8,8100;-3,9300;0,2000;9,6500
6,6288;8,7400;-3,5200;-0,1200;9,4200
6,6379;8,9700;-2,7300;-0,5300;9,3900
6,6465;9,0000;-2,3000;-0,9300;9,3400
6,6564;8,6900;-1,5900;-1,2100;8,9200
6,6656;8,8200;-0,8200;-0,9200;8,9100
6,6763;8,6700;-0,1500;-0,9300;8,7200
6,6876;8,2700;0,6600;-0,8400;8,3400
6,6969;8,4100;1,4800;-0,7700;8,5700
6,7071;8,0500;2,2700;-0,5000;8,3800
6,7171;7,7600;2,9600;-0,2000;8,3100
6,7259;7,4700;3,5700;-0,0500;8,2800
6,7347;7,5200;4,2200;0,2800;8,6300
6,7459;7,0800;5,0500;0,3700;8,7000
6,7558;6,8900;5,3900;0,7600;8,7800
6,7667;6,4900;6,1800;1,0000;9,0200
6,7754;6,4100;6,2300;1,0700;9,0000
6,7857;6,0600;6,5300;0,9500;8,9600
6,7968;5,9200;6,6500;0,8200;8,9400
6,8079;5,5900;6,8000;0,9100;8,8500
6,8164;5,4000;6,7400;0,4400;8,6500
6,8265;5,0000;6,7000;0,4800;8,3700
6,8361;4,7100;6,5400;-0,1700;8,0600
6,8469;4,7600;5,9500;-0,3100;7,6300
6,8556;4,5900;5,7900;-0,8900;7,4400
6,8649;4,3000;5,1700;-1,0100;6,8000
6,8758;4,1700;4,6300;-1,7800;6,4800
6,8857;3,9000;3,9700;-2,1700;5,9700
6,8956;3,6800;3,6500;-2,1900;5,6300
6,9070;3,3900;2,7700;-2,3700;4,9800
6,9165;3,1900;2,3100;-2,6800;4,7600
6,9251;3,0700;1,5500;-2,6200;4,3200
6,9348;2,7800;1,2300;-2,4300;3,8900
6,9437;2,6700;0,5700;-2,4400;3,6600
6,9525;2,5100;0,2100;-2,1500;3,3100
6,9627;2,1200;-0,1900;-1,6800;2,7100
6,9740;1,9700;-0,8200;-1,3000;2,5000
6,9843;1,6800;-1,0500;-0,8500;2,1600
6,9947;1,5200;-1,2400;0,0900;1,9600
7,0042;1,3000;-1,6900;0,2200;2,1400
7,0144;0,9200;-1,7700;1,1900;2,3200
7,0251;0,5800;-2,0100;1,6400;2,6600
7,0354;0,2000;-2,1200;1,8700;2,8300
7,0463;-0,3400;-2,0700;2,4300;3,2100
7,0565;-0,7100;-2,1300;2,2600;3,1900
7,0656;-0,9300;-2,1100;2,6200;3,4900
7,0758;-1,3500;-2,0800;2,5400;3,5500
7,0858;-2,0900;-2,1900;2,4200;3,8800
7,0948;-2,5800;-2,3800;2,5600;4,3400
7,1051;-2,7700;-2,3900;1,8500;4,1000
7,1161;-3,3700;-2,4000;1,8900;4,5500
7,1250;-3,9200;-2,4200;1,1500;4,7500
7,1351;-4,3900;-2,5500;1,0300;5,1800
7,1458;-5,0500;-2,7100;0,3800;5,7400
7,1555;-5,4600;-2,9300;0,1100;6,2000
7,1649;-6,1900;-2,7600;-0,0400;6,7800
7,1745;-6,6400;-3,0600;-0,4100;7,3200
7,1846;-7,0800;-3,1200;-1,0100;7,8000
7,1952;-7,7800;-3,0600;-1,0800;8,4300
7,2053;-8,0900;-3,4100;-1,0700;8,8400
7,2142;-8,6600;-3,2600;-0,9500;9,3000
7,2251;-8,9700;-3,6200;-1,2100;9,7500
7,2364;-9,3800;-3,8000;-0,6000;10,1400
7,2452;-9,8300;-3,7500;-0,4100;10,5300
7,2544;-9,9200;-3,7600;-0,1100;10,6100
7,2635;-10,3000;-4,0000;-0,2300;11,0500
7,2745;-10,5000;-3,9800;0,1000;11,2300
7,2857;-10,9500;-4,2600;0,7100;11,7700
7,2944;-11,0200;-4,2200;0,7500;11,8200
7,3039;-10,8600;-4,5700;0,7900;11,8100
7,3129;-10,7900;-4,6100;0,7800;11,7600
7,3228;-10,8500;-4,7800;0,9300;11,8900
7,3341;-10,6200;-4,6900;1,1100;11,6600
7,3428;-10,7700;-4,8700;1,0200;11,8600
7,3518;-10,2700;-4,9000;0,6500;11,4000
7,3618;-9,9900;-5,1500;0,6500;11,2600
7,3719;-9,7300;-5,0700;0,1100;10,9700
7,3826;-9,3600;-5,0800;-0,3100;10,6500
7,3924;-8,8100;-5,4900;-0,7800;10,4100
7,4013;-8,5100;-5,4800;-1,1500;10,1900
7,4109;-7,8300;-5,3600;-1,5600;9,6200
7,4224;-7,1300;-5,4500;-1,7500;9,1400
7,4331;-6,4900;-5,5200;-2,2700;8,8200
7,4420;-5,9800;-5,8000;-2,5700;8,7200
7,4529;-5,2800;-5,7500;-2,6200;8,2300
7,4623;-4,5100;-5,9600;-2,4000;7,8500
7,4732;-3,4600;-5,8900;-2,4600;7,2600
7,4817;-3,0100;-5,8700;-2,5700;7,0800
7,4928;-2,1800;-6,0200;-2,1000;6,7400
7,5018;-1,4000;-5,9900;-1,7500;6,4000
7,5117;-0,5200;-6,0300;-1,5400;6,2500
7,5221;0,3300;-6,1400;-0,5400;6,1700
7,5322;1,2100;-6,1500;-0,0300;6,2700
7,5412;1,8900;-5,9000;0,0500;6,2000
7,5501;2,5900;-6,1700;0,7600;6,7300
7,5594;3,2300;-5,8100;1,1100;6,7400
7,5681;3,6800;-5,8300;1,4500;7,0500
7,5772;4,1800;-5,7700;1,8500;7,3600
7,5861;5,0200;-5,8200;2,0200;7,9500
7,5960;5,3500;-6,0600;2,5600;8,4800
7,6056;6,0200;-5,9800;2,5200;8,8500
7,6159;6,4100;-5,8500;2,7100;9,0900
7,6252;7,0300;-5,8400;2,6900;9,5300
7,6338;7,1800;-5,8000;2,4200;9,5400
7,6433;7,6100;-5,3800;2,0700;9,5500
7,6541;7,8800;-5,2000;1,6200;9,5800
7,6633;8,3600;-5,0300;1,5300;9,8800
7,6730;8,4900;-4,9400;1,1400;9,8900
7,6838;8,6800;-4,3500;0,7400;9,7400
7,6935;8,6900;-3,9500;0,0200;9,5500
7,7047;8,7300;-3,5800;-0,4400;9,4500
7,7159;9,0000;-3,0100;-0,3800;9,5000
7,7254;8,9500;-2,4200;-0,7500;9,3000
7,7361;8,8900;-1,6000;-1,1900;9,1100
7,7453;8,9000;-0,7900;-0,9500;8,9900
7,7543;8,6400;-0,3800;-1,2800;8,7400
7,7641;8,3600;0,5000;-0,9300;8,4300
7,7744;8,3400;1,2700;-0,8100;8,4700
7,7857;8,0100;2,3400;-0,4900;8,3600
7,7946;7,8900;2,7600;-0,5700;8,3800
7,8053;7,6300;3,7000;0,1300;8,4800
7,8152;7,4300;4,2500;0,4400;8,5700
7,8241;7,3300;4,9200;0,7000;8,8600
7,8355;7,0000;5,6000;0,8700;9,0100
7,8461;6,5900;6,0900;0,8300;9,0100
7,8550;6,5000;6,4200;1,2700;9,2200
7,8662;6,2200;6,5300;1,1300;9,0900
7,8750;5,9700;6,6800;1,1400;9,0300
7,8838;5,6700;6,7000;1,0000;8,8300
7,8933;5,5600;6,7300;0,5900;8,7500
7,9046;5,1500;6,5500;0,6000;8,3500
7,9132;4,8200;6,6000;0,2000;8,1800
7,9244;4,6200;6,0100;-0,4400;7,5900
7,9348;4,5400;5,6600;-0,7900;7,3000
7,9435;4,2600;5,4800;-1,2700;7,0600
7,9537;4,0700;4,9600;-1,5400;6,6000
7,9636;3,8700;4,4800;-1,6300;6,1400
7,9738;3,6000;3,6800;-2,2500;5,6200
7,9845;3,3600;2,9200;-2,4900;5,1000
7,9950;3,1500;2,5500;-2,4300;4,7300
8,0065;3,1400;1,6800;-2,8200;4,5400
8,0155;2,8500;1,3400;-2,7300;4,1700
8,0264;2,6700;0,4800;-2,2100;3,5000
8,0361;2,6300;0,0000;-2,2400;3,4500
8,0470;2,2900;-0,2900;-1,5800;2,8000
8,0582;2,0900;-0,7000;-0,9700;2,4100
8,0696;1,7800;-1,1200;-0,5100;2,1600
8,0789;1,5900;-1,3800;-0,2500;2,1200
8,0888;1,0000;-1,5700;0,3400;1,8900
8,1001;0,7600;-1,9300;1,0900;2,3400
8,1115;0,5800;-2,0900;1,8200;2,8300
8,1211;0,0700;-2,0700;2,0500;2,9100
8,1324;-0,2000;-2,0700;2,4100;3,1800
8,1421;-0,8500;-2,2100;2,5600;3,4900
8,1517;-1,3100;-2,2800;2,5200;3,6400
8,1625;-1,4900;-2,2400;2,6500;3,7800
8,1724;-2,1200;-2,3100;2,2400;3,8500
8,1823;-2,5600;-2,4200;2,2400;4,1700
8,1919;-2,8900;-2,2500;2,1700;4,2600
8,2017;-3,6400;-2,3200;1,5200;4,5800
8,2106;-3,8500;-2,7000;1,4000;4,9100
8,2193;-4,5100;-2,6200;1,0800;5,3300
8,2301;-5,1300;-2,8000;0,3500;5,8500
8,2403;-5,6800;-2,8500;0,2900;6,3600
8,2508;-6,1400;-3,0600;-0,4000;6,8700
8,2617;-6,7300;-3,1500;-0,3800;7,4400
8,2709;-7,0500;-3,2600;-0,9000;7,8200
8,2801;-7,8000;-3,3200;-0,9200;8,5300
8,2894;-8,2500;-3,2400;-0,8300;8,9000
8,2988;-8,6400;-3,5400;-0,9000;9,3800
8,3096;-8,9500;-3,3700;-0,9900;9,6100
8,3192;-9,2700;-3,5100;-0,9900;9,9600
8,3287;-9,7200;-3,8100;-0,5900;10,4600
8,3391;-10,0000;-3,7800;-0,3400;10,7000
8,3482;-10,2500;-3,7900;-0,3500;10,9300
8,3570;-10,6800;-4,1800;0,0600;11,4700
8,3676;-10,8000;-4,1500;0,6200;11,5900
8,3784;-10,6800;-4,3000;0,6900;11,5300
8,3878;-10,9800;-4,4700;0,7100;11,8800
8,3982;-10,7900;-4,5900;1,0800;11,7800
8,4068;-10,9200;-4,7500;1,0400;11,9500
8,4165;-10,9300;-4,6600;1,2600;11,9500
8,4267;-10,8600;-4,9300;0,9600;11,9700
8,4360;-10,5900;-4,9500;0,5600;11,7000
8,4455;-10,3100;-4,8600;0,4000;11,4100
8,4558;-9,9400;-5,1700;0,0800;11,2000
8,4661;-9,5500;-5,2800;0,0900;10,9100
8,4751;-9,1300;-5,1400;-0,5600;10,4900
8,4857;-8,6400;-5,3500;-1,0100;10,2100
8,4944;-8,3400;-5,4300;-1,0600;10,0100
8,5058;-7,6000;-5,6400;-1,8800;9,6500
8,5150;-6,7900;-5,5500;-1,9800;8,9900
8,5242;-6,5100;-5,7100;-2,0700;8,9000
8,5333;-5,6400;-5,7000;-2,2700;8,3300
8,5448;-4,9100;-5,8200;-2,7700;8,1000
8,5541;-4,1400;-5,9800;-2,6200;7,7300
8,5645;-3,4900;-5,7400;-2,6300;7,2100
8,5759;-2,5900;-5,8500;-2,1600;6,7500
8,5873;-1,6500;-5,7900;-2,0200;6,3500
8,5959;-0,8300;-6,0400;-1,7100;6,3300
8,6060;-0,2500;-6,0600;-1,2000;6,1800
8,6163;0,4600;-6,1200;-0,7500;6,1800
8,6269;1,2500;-6,0700;0,1100;6,2000
8,6364;2,2500;-6,0600;0,4000;6,4800
8,6459;2,7400;-6,1000;0,9500;6,7500
8,6544;3,2600;-6,0600;1,2900;7,0000
8,6630;4,0000;-6,0300;1,7100;7,4400
8,6731;4,7400;-5,8100;2,0300;7,7700
8,6819;5,1800;-5,9200;2,2900;8,1900
8,6910;5,5300;-5,7600;2,6300;8,4100
8,7005;6,1200;-5,9800;2,4500;8,9000
8,7092;6,5000;-5,8900;2,7000;9,1800
8,7178;6,8000;-5,5600;2,4400;9,1200
8,7291;7,5800;-5,7600;2,1100;9,7500
8,7389;7,7400;-5,6200;1,8500;9,7400
8,7480;7,9100;-5,2900;1,9400;9,7100
8,7586;8,4400;-5,1200;1,1000;9,9300
8,7671;8,6500;-4,9000;0,8700;9,9800
8,7764;8,7500;-4,4300;0,7800;9,8400
8,7878;8,6900;-3,9500;-0,0700;9,5500
8,7990;8,7400;-3,5500;-0,4100;9,4400
8,8094;8,8800;-2,8400;-0,7000;9,3500
8,8181;8,8900;-2,3300;-0,6300;9,2100
8,8276;8,9500;-1,5700;-1,1500;9,1600
8,8362;8,9100;-1,2400;-0,8200;9,0300
8,8453;8,7900;-0,5100;-1,2600;8,8900
8,8539;8,4800;0,2500;-1,0000;8,5400
8,8628;8,4200;0,7500;-0,7900;8,4900
8,8732;8,0800;1,8300;-0,7100;8,3200
8,8820;8,0400;2,5400;-0,5400;8,4500
8,8910;7,6900;2,9800;-0,3400;8,2500
8,9022;7,4500;3,9200;-0,1200;8,4200
8,9117;7,2200;4,3600;0,5200;8,4500
8,9212;7,0500;5,1700;0,4800;8,7600
8,9299;6,8300;5,3800;0,8000;8,7300
8,9408;6,6900;5,8000;0,9600;8,9100
8,9513;6,2000;6,1900;1,2700;8,8500
8,9615;5,9600;6,5900;0,9400;8,9300
8,9718;5,8900;6,6100;0,8400;8,8900
8,9806;5,6800;7,0000;1,1000;9,0800
8,9899;5,4700;6,8500;0,7100;8,7900
9,0002;5,2300;6,7100;0,5000;8,5200
9,0115;4,9600;6,4800;0,1000;8,1600
9,0225;4,6800;6,0700;-0,2400;7,6700
9,0329;4,5300;5,8200;-0,6400;7,4000
9,0430;4,0900;5,3000;-1,1200;6,7900
9,0515;3,9700;4,7700;-1,8100;6,4600
9,0627;3,9400;4,1100;-1,7800;5,9700
9,0714;3,5800;3,5500;-2,4400;5,6000
9,0803;3,5400;3,0900;-2,2400;5,2100
9,0908;3,2400;2,4700;-2,8200;4,9500
9,1018;3,1000;1,7300;-2,4800;4,3300
9,1126;3,0300;1,4100;-2,4700;4,1600
9,1225;2,7700;0,6500;-2,6000;3,8500
9,1315;2,5100;0,2900;-2,0000;3,2200
9,1401;2,2700;-0,2700;-1,7900;2,9000
9,1512;2,2000;-0,5500;-1,5600;2,7500
9,1626;1,8800;-0,9200;-0,6300;2,1900
9,1719;1,5600;-1,3900;-0,2900;2,1100
9,1830;1,4100;-1,3500;0,2300;1,9700
9,1927;1,0600;-1,8200;0,9800;2,3200
9,2021;0,8600;-1,9200;1,0700;2,3600
9,2121;0,4200;-1,8700;1,5000;2,4300
9,2206;0,2000;-2,0700;2,1800;3,0100
9,2305;-0,2900;-1,9400;2,1100;2,8800
9,2396;-0,5900;-2,2100;2,6400;3,4900
9,2502;-0,9800;-2,2300;2,4500;3,4500
9,2602;-1,6800;-2,1500;2,7600;3,8800
9,2713;-2,0500;-2,1500;2,4500;3,8500
9,2825;-2,5400;-2,2100;2,3400;4,1000
9,2920;-3,1900;-2,4800;2,0700;4,5400
9,3013;-3,4000;-2,4600;1,6500;4,5100
9,3126;-4,0100;-2,5800;1,2800;4,9400
9,3226;-4,4500;-2,5700;0,9300;5,2200
9,3314;-5,1100;-2,8000;0,3200;5,8400
9,3401;-5,5300;-2,6700;0,3600;6,1500
9,3515;-5,9800;-2,8200;-0,1000;6,6100
9,3618;-6,6800;-3,1000;-0,7200;7,4000
9,3704;-6,9700;-3,1400;-0,9200;7,7000
9,3805;-7,6100;-3,2300;-1,0100;8,3300
9,3905;-8,1100;-3,1300;-0,9200;8,7400
9,4003;-8,5800;-3,4000;-1,0600;9,2900
9,4116;-9,0800;-3,4700;-1,0800;9,7800
9,4230;-9,4500;-3,4800;-0,6800;10,0900
9,4319;-9,8500;-3,7700;-0,7800;10,5800
9,4408;-9,9000;-3,6800;-0,3000;10,5700
9,4505;-10,1200;-4,0200;-0,0100;10,8900
9,4615;-10,6800;-4,2400;-0,0300;11,4900
9,4719;-10,8800;-4,3200;0,4800;11,7200
9,4826;-11,0400;-4,2400;0,7500;11,8500
9,4928;-10,7800;-4,4600;1,1300;11,7200
9,5020;-11,1000;-4,4000;0,9100;11,9700
9,5129;-10,8400;-4,6300;1,0500;11,8300
9,5214;-10,8900;-4,6600;1,2700;11,9100
9,5320;-10,7600;-4,8900;0,7600;11,8400
9,5411;-10,5600;-4,9000;0,9800;11,6800
9,5510;-10,1400;-4,9600;0,4600;11,3000
9,5625;-10,0100;-5,1800;0,0900;11,2700
9,5726;-9,3300;-5,2300;0,0400;10,7000
9,5813;-9,0600;-5,1800;-0,6100;10,4500
9,5910;-8,7000;-5,2300;-1,0800;10,2100
9,6015;-8,1600;-5,5200;-1,5200;9,9700
9,6102;-7,5200;-5,6800;-1,6000;9,5600
9,6194;-6,9600;-5,4800;-1,9400;9,0700
9,6280;-6,5300;-5,6700;-2,3800;8,9700
9,6381;-5,8400;-5,5500;-2,4700;8,4300
9,6478;-5,1300;-5,6800;-2,6900;8,1100
9,6578;-4,2500;-5,8600;-2,4400;7,6400
9,6672;-3,6800;-5,7400;-2,6200;7,3000
9,6776;-2,7800;-5,8800;-2,3100;6,9000
9,6867;-2,1600;-5,8500;-1,9300;6,5300
9,6979;-1,3200;-5,8200;-1,8800;6,2600
9,7093;-0,4700;-5,9500;-1,0300;6,0600
9,7192;0,3600;-5,8400;-0,7800;5,9000
9,7291;1,0400;-6,0300;-0,1900;6,1200
9,7402;1,9400;-6,0400;0,2100;6,3500
9,7496;2,4200;-5,9400;0,9000;6,4800
9,7605;3,2300;-6,0100;1,4400;6,9700
9,7699;4,0400;-5,8900;1,7800;7,3600
9,7805;4,5400;-5,9200;2,2900;7,8000
9,7900;5,2600;-5,8200;2,3500;8,1900
9,8003;5,8700;-5,7500;2,3000;8,5300
9,8116;6,3200;-5,7900;2,8200;9,0200
9,8203;6,5600;-5,6200;2,6200;9,0300
9,8312;7,2500;-5,5800;2,5100;9,4900
9,8413;7,5900;-5,4400;2,2800;9,6100
9,8509;7,7800;-5,5900;1,7200;9,7300
9,8605;8,2500;-5,4000;1,5100;9,9800
9,8692;8,3300;-4,9700;1,0800;9,7600
9,8785;8,3600;-4,7900;0,9800;9,6800
9,8888;8,5200;-4,2300;0,6600;9,5400
9,8976;8,6800;-4,0300;0,2200;9,5700
9,9081;8,8900;-3,4000;-0,0800;9,5200
9,9195;8,9900;-2,9500;-0,6700;9,4900
9,9310;8,7100;-2,1100;-1,0800;9,0300
9,9421;8,6200;-1,2700;-1,0500;8,7800
9,9531;8,7300;-0,5100;-1,2300;8,8300
9,9621;8,5400;-0,0200;-1,1400;8,6200
9,9735;8,3800;0,8800;-1,0600;8,4900
9,9826;8,3500;1,5800;-0,9400;8,5500
9,9937;8,1700;2,3500;-0,4400;8,5100
10,0049;7,9500;3,2000;-0,2000;8,5700
10,0152;7,6500;4,0800;0,2000;8,6700
10,0253;7,1400;4,6800;0,5600;8,5600
10,0344;6,9700;5,0100;0,4200;8,5900
10,0444;6,8700;5,6500;0,9900;8,9500
10,0538;6,7700;6,1500;1,0600;9,2100
10,0627;6,2400;6,2600;1,0600;8,9000
10,0716;6,1600;6,6700;1,3000;9,1700
10,0825;5,8500;6,8500;1,0400;9,0700
10,0938;5,5800;6,9700;0,6600;8,9500
10,1027;5,3300;6,6700;0,5300;8,5500
10,1112;5,1300;6,8700;0,4000;8,5800
10,1205;4,9100;6,7200;0,3000;8,3300
10,1294;4,6700;6,2300;-0,0900;7,7900
10,1385;4,6300;6,0600;-0,3800;7,6400
10,1487;4,3900;5,4600;-1,1300;7,1000
10,1585;4,2900;5,1900;-1,4100;6,8800
10,1683;4,0700;4,7300;-1,6300;6,4500
10,1774;4,0100;4,2500;-1,8900;6,1400
10,1879;3,6000;3,6900;-2,2900;5,6400
10,1973;3,6200;2,9400;-2,6000;5,3400
10,2070;3,2700;2,3100;-2,6800;4,8200
10,2169;3,1800;1,9900;-2,4800;4,5000
10,2281;3,0200;1,0800;-2,4300;4,0200
10,2373;2,6900;0,6700;-2,5100;3,7400
10,2480;2,4900;0,1500;-1,8700;3,1200
10,2574;2,3600;-0,0900;-2,0000;3,0900
10,2686;1,9300;-0,6500;-1,4300;2,4900
10,2783;1,8400;-0,8400;-0,8700;2,2000
10,2883;1,4400;-1,1900;-0,1700;1,8800
10,2994;1,1800;-1,4000;0,2900;1,8500
10,3099;1,0100;-1,6100;0,8800;2,0900
10,3187;0,8600;-1,7100;1,4400;2,4000
10,3276;0,5800;-2,0100;1,5400;2,6000
10,3391;-0,0700;-2,0800;1,8800;2,8000
10,3477;-0,4300;-2,0300;2,2400;3,0500
10,3571;-0,6600;-2,0900;2,5100;3,3300
10,3685;-1,1600;-2,0700;2,4200;3,3900
10,3770;-1,5400;-2,1000;2,3800;3,5300
10,3860;-1,8000;-2,3200;2,6600;3,9600
10,3951;-2,2500;-2,4400;2,6400;4,2400
10,4039;-2,7100;-2,2800;2,4100;4,2800
10,4138;-3,1700;-2,3600;1,8400;4,3600
10,4241;-3,7000;-2,5800;1,5200;4,7600
10,4335;-4,1500;-2,7300;1,3400;5,1400
10,4424;-4,5100;-2,8100;1,0600;5,4200
10,4533;-5,0700;-2,8200;0,3100;5,8100
10,4642;-5,6200;-2,9100;0,1900;6,3300
10,4744;-6,1800;-3,0300;-0,2800;6,8900
10,4833;-6,9000;-3,1700;-0,8100;7,6400
10,4934;-7,2800;-3,2200;-0,8800;8,0100
10,5038;-7,6600;-3,2700;-1,2500;8,4200
10,5136;-8,2800;-3,4600;-1,1100;9,0400
10,5247;-8,6500;-3,5300;-1,0300;9,4000
10,5344;-9,2400;-3,5600;-0,8000;9,9300
10,5444;-9,5600;-3,5200;-0,8800;10,2300
10,5532;-9,8000;-3,6100;-0,5300;10,4600
10,5634;-10,2300;-3,8900;-0,2700;10,9500
10,5742;-10,3900;-4,1100;-0,0500;11,1700
10,5849;-10,6800;-4,1700;0,2900;11,4700
10,5942;-10,6200;-4,1400;0,4600;11,4100
10,6057;-10,9400;-4,3600;0,7900;11,8000
10,6163;-10,9800;-4,4200;0,9000;11,8700
10,6261;-10,8400;-4,4600;1,2400;11,7900
10,6358;-10,8700;-4,5900;0,8800;11,8300
10,6467;-10,9400;-4,6400;1,2100;11,9400
10,6557;-10,7300;-5,0000;1,0400;11,8800
10,6661;-10,3700;-5,0300;0,4700;11,5400
10,6768;-10,2200;-5,2200;0,5400;11,4900
10,6868;-9,8700;-5,1400;0,0400;11,1300
10,6980;-9,3100;-5,2100;-0,3000;10,6700
10,7079;-8,9200;-5,4200;-0,6900;10,4600
10,7178;-8,5100;-5,5700;-0,9800;10,2200
10,7271;-7,9200;-5,5000;-1,4700;9,7500
10,7384;-7,2400;-5,6800;-1,8000;9,3800
10,7478;-6,8700;-5,7400;-2,2900;9,2400
10,7584;-6,1100;-5,7400;-2,6200;8,7800
10,7681;-5,4400;-5,5900;-2,4700;8,1800
10,7794;-4,4400;-5,8600;-2,3700;7,7200
10,7908;-3,9000;-5,7800;-2,7700;7,5000
10,7994;-3,1600;-5,9300;-2,2200;7,0800
10,8108;-2,3500;-5,9600;-2,2100;6,7800
10,8212;-1,3900;-6,0800;-1,7300;6,4700
10,8299;-0,6900;-6,0800;-1,5700;6,3200
10,8399;-0,2000;-5,8900;-0,9000;5,9600
10,8485;0,7300;-6,0200;-0,6000;6,0900
10,8587;1,4200;-6,0800;0,1000;6,2400
10,8677;1,9000;-5,8300;0,3100;6,1400
10,8773;2,8200;-5,8600;0,8200;6,5500
10,8867;3,2400;-6,0600;1,4100;7,0100
10,8971;4,0800;-5,9800;1,5800;7,4100
10,9080;4,5100;-5,9000;2,3800;7,8000
10,9193;5,2900;-6,0100;2,4800;8,3800
10,9288;5,8200;-5,8800;2,8000;8,7300
10,9390;6,4600;-5,8800;2,4500;9,0700
10,9475;6,8300;-5,6500;2,6900;9,2600
10,9572;7,1300;-5,8300;2,3200;9,5000
10,9685;7,3800;-5,3900;2,0200;9,3600
10,9774;7,8000;-5,5300;1,9500;9,7600
10,9885;8,0900;-5,2800;1,5800;9,7900
10,9990;8,5500;-5,1000;1,2300;10,0300
11,0083;8,6200;-4,5200;0,8100;9,7700
11,0192;8,6700;-4,1500;0,2400;9,6200
11,0285;8,7500;-4,0100;0,1300;9,6300
11,0397;8,9500;-3,3000;-0,4600;9,5500
11,0485;8,7300;-2,8600;-0,7000;9,2100
11,0573;8,9700;-2,2600;-0,6600;9,2700
11,0681;8,8700;-1,6600;-0,8900;9,0700
11,0779;8,7000;-0,7700;-0,9400;8,7800
11,0869;8,7000;-0,3900;-0,8500;8,7500
11,0969;8,4600;0,5600;-0,8300;8,5200
11,1063;8,2200;1,0600;-1,0200;8,3500
11,1165;8,1300;1,9500;-0,4500;8,3700
11,1272;7,7900;2,6500;-0,4300;8,2400
11,1383;7,5600;3,4600;-0,1200;8,3200
11,1469;7,4900;4,0400;-0,0200;8,5100
11,1572;7,3800;4,7000;0,3100;8,7600
11,1687;6,8900;5,1400;0,6700;8,6200
11,1785;6,7500;5,6000;0,6100;8,7900
11,1894;6,6500;6,3400;1,1000;9,2500
11,1981;6,3800;6,3600;0,9800;9,0600
11,2093;6,1300;6,6400;1,1500;9,1100
11,2195;5,8100;6,7200;1,0900;8,9500
11,2307;5,5100;6,8800;0,8500;8,8600
11,2415;5,2600;6,9100;0,3100;8,6900
11,2526;5,0200;6,5000;0,2200;8,2200
11,2613;4,7900;6,2500;-0,2000;7,8800
11,2720;4,5300;5,9000;-0,4300;7,4500
11,2811;4,3100;5,4300;-0,7900;6,9800
11,2904;4,0700;5,0300;-1,2700;6,5900
11,2998;3,9900;4,5400;-1,5100;6,2300
11,3101;3,9400;4,0900;-2,1500;6,0700
11,3205;3,6800;3,7400;-2,1000;5,6500
11,3318;3,3300;2,7900;-2,2500;4,8900
11,3403;3,4100;2,4400;-2,3800;4,8200
11,3494;2,9700;1,8000;-2,4600;4,2600
11,3590;3,1000;1,2100;-2,6100;4,2300
11,3699;2,8000;0,9200;-2,1800;3,6700
11,3801;2,5600;0,1700;-2,1100;3,3200
11,3901;2,3000;-0,2700;-1,9500;3,0300
11,4009;2,2100;-0,4600;-1,3500;2,6300
11,4114;1,6800;-1,0200;-0,7100;2,0900
11,4207;1,4500;-1,3100;-0,3300;1,9800
11,4295;1,4000;-1,2700;0,2000;1,9000
11,4394;1,0500;-1,7300;0,3100;2,0500
11,4505;0,7500;-1,6900;1,3200;2,2700
11,4608;0,4700;-1,9900;1,7600;2,7000
11,4695;0,0100;-1,9700;1,8800;2,7200
11,4793;-0,0100;-2,1200;2,4000;3,2000
11,4890;-0,4800;-2,1600;2,2600;3,1600
11,4992;-1,0900;-2,0000;2,5000;3,3800
11,5095;-1,2900;-2,0500;2,4500;3,4500
11,5208;-1,8500;-2,3600;2,6400;4,0000
11,5303;-2,2300;-2,2200;2,6200;4,0900
11,5401;-2,6600;-2,4900;2,4000;4,3600
11,5504;-3,0700;-2,5000;1,6700;4,3000
11,5616;-3,9200;-2,6600;1,6300;5,0100
11,5722;-4,1500;-2,5400;1,1100;4,9900
11,5821;-4,8300;-2,5900;0,5500;5,5100
11,5930;-5,4900;-2,6700;0,4600;6,1200
11,6030;-5,9300;-2,7500;-0,0900;6,5400
11,6144;-6,5100;-2,9900;-0,7000;7,2000
11,6237;-6,7900;-3,1500;-0,7700;7,5200
11,6326;-7,3400;-3,3000;-0,8000;8,0900
11,6436;-8,0200;-3,2600;-0,8500;8,7000
11,6530;-8,2100;-3,1800;-1,2200;8,8900
11,6640;-8,7600;-3,4700;-0,9900;9,4700
11,6744;-9,0500;-3,5200;-1,1300;9,7800
11,6844;-9,6900;-3,5200;-0,5500;10,3200
11,6931;-9,6900;-3,6300;-0,8100;10,3800
11,7040;-10,0000;-3,8000;-0,0600;10,7000
11,7127;-10,5300;-3,9400;-0,0300;11,2400
11,7241;-10,6100;-4,1900;0,3800;11,4100
11,7352;-10,9100;-4,1300;0,6200;11,6800
11,7446;-10,8700;-4,3500;0,7400;11,7300
11,7535;-11,0800;-4,3500;0,8700;11,9400
11,7647;-10,8100;-4,6400;0,8800;11,8000
11,7746;-11,0100;-4,4900;0,9600;11,9300
11,7835;-10,7500;-4,8500;0,8400;11,8200
11,7935;-10,6100;-4,7300;0,8300;11,6500
11,8027;-10,5400;-4,7900;0,8600;11,6100
11,8125;-10,3300;-5,1400;0,5800;11,5500
11,8229;-9,7700;-4,9900;0,2800;10,9700
11,8341;-9,6700;-5,1600;-0,1400;10,9600
11,8450;-9,1400;-5,2700;-0,3500;10,5600
11,8540;-8,7000;-5,4700;-0,7500;10,3000
11,8639;-8,1100;-5,5200;-1,4400;9,9200
11,8739;-7,6400;-5,6200;-1,6600;9,6300
11,8854;-7,0500;-5,6300;-1,8200;9,2000
11,8941;-6,3500;-5,6100;-2,4000;8,8100
11,9042;-5,6400;-5,6400;-2,3800;8,3200
11,9154;-4,8800;-5,7100;-2,5300;7,9300
11,9251;-4,2700;-5,8800;-2,5200;7,6900
11,9344;-3,6600;-5,9200;-2,5000;7,4000
11,9446;-3,0200;-5,8100;-2,2400;6,9200
11,9540;-2,1300;-5,7700;-2,1700;6,5200
11,9653;-1,2500;-6,0600;-1,5000;6,3700
11,9741;-0,6600;-6,0100;-1,3300;6,1900
11,9832;0,2000;-6,0700;-1,0200;6,1600
11,9919;0,5800;-5,8300;-0,4400;5,8800
12,0026;1,5600;-6,1700;0,1200;6,3700
12,0120;2,1900;-5,8600;0,7200;6,3000
12,0232;3,0300;-5,8900;1,1200;6,7200
12,0343;3,7700;-6,0300;1,5600;7,2800
12,0456;4,2400;-5,8800;1,9000;7,4900
12,0549;5,0200;-5,9600;2,2100;8,1000
12,0634;5,3200;-5,8400;2,3300;8,2400
12,0731;5,9200;-5,8800;2,6300;8,7500
12,0845;6,5700;-5,6500;2,8000;9,1100
12,0953;6,9200;-5,7500;2,5900;9,3600
12,1039;7,2600;-5,5500;2,2600;9,4100
12,1145;7,4600;-5,5100;1,9400;9,4700
12,1258;7,9900;-5,4000;2,0200;9,8500
12,1372;8,1500;-4,9500;1,3300;9,6300
12,1478;8,4300;-4,9300;1,1100;9,8300
12,1589;8,6000;-4,3100;0,8000;9,6500
12,1700;8,9400;-3,8400;0,3800;9,7400
12,1795;8,8900;-3,4400;-0,1500;9,5300
12,1883;8,9500;-3,0700;-0,2500;9,4700
12,1990;8,7600;-2,4600;-0,7800;9,1300
12,2079;8,7700;-1,8100;-0,6800;8,9800
12,2176;8,9100;-1,3500;-0,9300;9,0600
12,2291;8,5300;-0,4100;-1,2800;8,6400
12,2392;8,7000;0,3000;-0,8700;8,7500
12,2493;8,3600;1,0700;-1,0900;8,5000
12,2607;8,1500;1,7600;-0,4800;8,3500
12,2700;8,0200;2,5100;-0,7400;8,4400
12,2815;7,7500;3,1200;-0,1000;8,3600
12,2927;7,5100;3,8500;-0,0900;8,4400
12,3023;7,2700;4,4500;0,3500;8,5300
12,3118;7,1500;5,2000;0,5000;8,8600
12,3207;6,7800;5,5000;0,9500;8,7800
12,3319;6,4700;6,1700;0,8300;8,9800
12,3410;6,3400;6,1800;1,1400;8,9300
12,3495;6,0100;6,4400;1,2900;8,9000
12,3607;5,8700;6,8700;0,8100;9,0700
12,3710;5,6400;6,8000;1,0200;8,8900
12,3815;5,5000;6,7100;0,5100;8,6900
12,3922;5,0300;6,7900;0,5700;8,4700
12,4008;4,9400;6,4300;0,3400;8,1200
12,4096;4,8900;6,4600;-0,3300;8,1100
12,4196;4,5300;5,8800;-0,3400;7,4300
12,4283;4,5300;5,7500;-0,9000;7,3800
12,4383;4,3000;5,1700;-1,3600;6,8600
12,4490;3,8600;4,8000;-1,4300;6,3200
12,4594;3,7900;4,0200;-2,0600;5,9000
12,4698;3,7300;3,6600;-2,4300;5,7600
12,4784;3,4900;2,9500;-2,5400;5,2300
12,4876;3,3800;2,4800;-2,3700;4,8200
12,4988;3,2900;1,9100;-2,3700;4,4800
12,5077;3,0200;1,4000;-2,5900;4,2200
12,5178;2,7800;0,9100;-2,4200;3,8000
12,5265;2,7200;0,5000;-2,1700;3,5200
12,5378;2,3400;-0,1600;-1,6900;2,8900
12,5468;2,0000;-0,6100;-1,7600;2,7300
12,5565;1,8700;-0,7100;-0,9400;2,2100
12,5667;1,7500;-1,0700;-0,3600;2,0800
12,5773;1,6000;-1,3600;-0,1000;2,1000
12,5886;1,1700;-1,6200;0,4900;2,0600
12,5993;0,7400;-1,6400;1,2700;2,2000
12,6089;0,7000;-1,9700;1,4200;2,5300
12,6176;0,2000;-1,8400;1,7500;2,5500
12,6282;-0,2300;-2,1700;2,3400;3,2000
12,6396;-0,5400;-2,0400;2,4100;3,2000
12,6482;-0,9400;-1,9900;2,6300;3,4300
12,6590;-1,4600;-2,3100;2,5100;3,7100
12,6681;-1,6400;-2,1400;2,6700;3,7900
12,6779;-2,0800;-2,3600;2,4000;3,9600
12,6880;-2,4400;-2,5000;2,4000;4,2400
12,6983;-3,2200;-2,4300;1,9800;4,4900
12,7098;-3,5100;-2,4200;1,8100;4,6300
12,7204;-4,0700;-2,6400;1,2300;5,0000
12,7301;-4,7400;-2,4800;1,0000;5,4400
12,7407;-5,2000;-2,9000;0,3700;5,9700
12,7506;-5,6400;-2,8900;0,1200;6,3400
12,7603;-6,2400;-2,9600;-0,4100;6,9200
12,7699;-6,7900;-3,0300;-0,5300;7,4500
12,7799;-7,0200;-3,1500;-0,7200;7,7300
12,7893;-7,6900;-3,3400;-1,1100;8,4600
12,7985;-8,0000;-3,3700;-1,0200;8,7400
12,8074;-8,4100;-3,4400;-0,8600;9,1300
12,8172;-8,6600;-3,4000;-1,1800;9,3800
12,8266;-9,1400;-3,6000;-0,9300;9,8700
12,8376;-9,5800;-3,6000;-0,5700;10,2500
12,8487;-9,7400;-3,8100;-0,5300;10,4700
12,8582;-10,2300;-3,9500;-0,4900;10,9800
12,8686;-10,3500;-4,1300;0,0400;11,1400
12,8798;-10,7400;-4,2300;0,3000;11,5500
12,8894;-10,7000;-4,0900;0,7700;11,4800
12,8995;-10,8100;-4,3600;0,8600;11,6900
12,9094;-10,8300;-4,5100;1,0700;11,7800
12,9198;-10,9500;-4,6600;0,9700;11,9400
12,9312;-10,9700;-4,5400;1,2700;11,9400
12,9401;-10,7300;-4,6900;1,1900;11,7700
12,9515;-10,4400;-4,8100;0,6700;11,5100
12,9620;-10,4100;-4,8700;0,7400;11,5200
12,9729;-10,2100;-5,1700;0,5700;11,4600
12,9833;-9,8000;-5,0900;0,1000;11,0400
12,9944;-9,1000;-5,4200;-0,1500;10,5900
13,0039;-9,0100;-5,2900;-0,8800;10,4900
13,0145;-8,4800;-5,4900;-1,1300;10,1700
13,0238;-7,9800;-5,4400;-1,5100;9,7800
13,0338;-7,1400;-5,6600;-1,9800;9,3200
13,0444;-6,6800;-5,6900;-2,0400;9,0100
13,0535;-6,0000;-5,6300;-2,4200;8,5800
13,0621;-5,4200;-5,5900;-2,4500;8,1600
13,0730;-4,7700;-5,8500;-2,4700;7,9400
13,0839;-3,9000;-5,9600;-2,4700;7,5400
13,0944;-3,2300;-6,0200;-2,6600;7,3300
13,1039;-2,5100;-5,8600;-2,4800;6,8400
13,1144;-1,8100;-5,8100;-1,7800;6,3400
13,1231;-1,2700;-6,1300;-1,5400;6,4500
13,1336;-0,2900;-6,0400;-1,3400;6,1900
13,1438;0,3500;-6,1100;-0,8700;6,1800
13,1542;1,1000;-5,8400;-0,1700;5,9500
13,1640;2,0100;-6,1300;0,1700;6,4500
13,1732;2,4600;-6,1400;1,0100;6,6900
13,1839;3,0800;-5,8900;1,1500;6,7500
13,1938;3,9000;-5,7900;1,9200;7,2400
13,2045;4,5200;-5,8400;2,1800;7,7000
13,2141;4,9100;-6,0400;2,3600;8,1300
13,2229;5,4900;-5,9100;2,5800;8,4700
13,2330;6,0900;-5,8300;2,7000;8,8500
13,2434;6,4600;-5,6400;2,5000;8,9300
13,2546;7,1800;-5,6200;2,5000;9,4500
13,2658;7,5400;-5,7600;2,0800;9,7100
13,2745;7,7200;-5,5000;1,8500;9,6600
13,2853;8,1800;-5,2000;1,9600;9,8900
13,2946;8,1000;-5,0800;1,5800;9,6900
13,3052;8,3800;-4,7400;1,1200;9,6900
13,3148;8,7800;-4,3200;0,4200;9,7900
13,3243;8,7500;-3,9500;0,3100;9,6100
13,3342;8,7100;-3,5500;0,0000;9,4100
13,3443;8,8900;-3,1400;-0,4600;9,4400
13,3549;8,9500;-2,6400;-0,7700;9,3600
13,3653;8,8700;-2,0600;-0,7900;9,1400
13,3759;8,6100;-1,3700;-1,2700;8,8100
13,3855;8,5100;-0,5400;-1,0800;8,6000
13,3960;8,5100;0,2600;-1,1600;8,5900
13,4056;8,2400;0,9800;-0,9700;8,3500
13,4159;8,0900;1,7500;-0,7400;8,3100
13,4258;8,1000;2,2500;-0,6000;8,4300
13,4360;7,8200;2,9800;-0,1200;8,3700
13,4445;7,5100;3,5100;0,1100;8,2900
13,4545;7,5600;4,2600;0,3200;8,6800
13,4637;7,1700;4,9400;0,5700;8,7300
13,4733;7,1200;5,3900;0,6500;8,9500
13,4821;6,8200;5,6800;0,7100;8,9000
13,4925;6,5700;6,0000;1,1300;8,9700
13,5037;6,2300;6,5800;0,8700;9,1000
13,5133;6,0800;6,8000;1,1100;9,1900
13,5221;5,7200;6,8800;1,0700;9,0100
13,5324;5,4900;6,7600;0,6700;8,7300
13,5413;5,5000;6,7600;0,5300;8,7300
13,5525;5,0200;6,6900;0,4700;8,3800
13,5614;4,8900;6,6200;0,2700;8,2300
13,5710;4,8200;6,1200;-0,3000;7,8000
13,5809;4,4700;5,8400;-0,6200;7,3800
13,5898;4,3100;5,3500;-0,8800;6,9300
13,5993;4,3200;4,9000;-1,3100;6,6600
13,6086;3,9000;4,5200;-1,7000;6,2100
13,6192;3,7200;4,1500;-1,9600;5,9100
13,6307;3,7400;3,4700;-2,2200;5,5600
13,6403;3,3600;2,8600;-2,3500;5,0000
13,6511;3,1800;2,2200;-2,5700;4,6500
13,6601;3,2200;1,6700;-2,5300;4,4200
13,6703;2,8300;1,3000;-2,6800;4,1100
13,6801;2,8800;0,7000;-2,5300;3,9000
13,6895;2,6400;0,1100;-1,9600;3,2900
13,7004;2,4200;-0,1700;-1,8800;3,0700
13,7112;1,9700;-0,4500;-1,3400;2,4200
13,7201;1,7600;-1,0700;-0,7000;2,1800
13,7294;1,7200;-1,0200;-0,6100;2,0900
13,7404;1,4600;-1,6000;0,2100;2,1800
13,7519;0,9400;-1,7500;0,5700;2,0700
13,7622;0,6200;-1,6600;1,2400;2,1600
13,7733;0,2800;-1,7800;1,8100;2,5500
13,7848;-0,1400;-2,1400;2,2200;3,0900
13,7955;-0,4300;-2,0100;2,4800;3,2200
13,8059;-0,8000;-2,0900;2,5400;3,3900
13,8151;-1,1200;-2,2100;2,6300;3,6100
13,8247;-1,7200;-2,1200;2,4400;3,6600
13,8351;-2,1200;-2,2200;2,3200;3,8500
13,8464;-2,6600;-2,4300;2,4300;4,3500
13,8558;-3,0400;-2,3900;1,8400;4,2800
13,8655;-3,5300;-2,3800;1,9800;4,7000
13,8740;-3,6800;-2,4700;1,3000;4,6200
13,8846;-4,4100;-2,5800;1,1600;5,2400
13,8944;-4,9800;-2,5900;0,6400;5,6500
13,9053;-5,3400;-2,8900;0,3000;6,0800
13,9145;-5,6900;-3,0000;0,0400;6,4300
13,9250;-6,2800;-3,1000;-0,5200;7,0200
13,9355;-6,8400;-2,9900;-0,5300;7,4800
13,9454;-7,4100;-3,1500;-0,7600;8,0900
13,9545;-7,8200;-3,1000;-0,9700;8,4700
13,9642;-8,2800;-3,1500;-1,0300;8,9200
13,9749;-8,5600;-3,5600;-1,1100;9,3400
13,9840;-8,9200;-3,5600;-0,7400;9,6300
13,9928;-9,3600;-3,6400;-0,9000;10,0800
14,0027;-9,5700;-3,7000;-0,7900;10,2900
14,0119;-9,9200;-3,6700;-0,4100;10,5900
14,0228;-10,2100;-3,9000;0,0500;10,9300
14,0337;-10,6000;-4,1200;0,3500;11,3800
14,0451;-10,8100;-4,1200;0,4700;11,5800
14,0561;-10,9500;-4,3500;0,6300;11,8000
14,0665;-10,7800;-4,3900;1,0000;11,6800
14,0756;-10,8400;-4,6400;1,0200;11,8400
14,0865;-10,7800;-4,5900;1,2300;11,7800
14,0972;-10,7100;-4,7300;1,2200;11,7700
14,1080;-10,5600;-4,7800;1,0500;11,6400
14,1186;-10,4800;-4,9100;1,0100;11,6200
14,1296;-10,0900;-5,0100;0,5800;11,2800
14,1389;-10,0100;-5,0400;0,4600;11,2200
14,1495;-9,4600;-5,3400;-0,0700;10,8600
14,1595;-9,2600;-5,2100;-0,6700;10,6500
14,1690;-8,5100;-5,3300;-0,8400;10,0800
14,1785;-8,0700;-5,3800;-1,1400;9,7700
14,1875;-7,8400;-5,5500;-1,6400;9,7400
14,1975;-7,0600;-5,7300;-2,1000;9,3300
14,2071;-6,4600;-5,4900;-2,2800;8,7800
14,2168;-6,1200;-5,5900;-2,2800;8,6000
14,2279;-5,2000;-5,5900;-2,7200;8,1000
14,2384;-4,5200;-5,8300;-2,8600;7,9100
14,2490;-3,7100;-5,7200;-2,3700;7,2200
14,2604;-2,7800;-5,7700;-2,1400;6,7500
14,2696;-2,1600;-5,9100;-1,9700;6,5900
14,2796;-1,6000;-5,8100;-1,6700;6,2500
14,2884;-0,8300;-5,8600;-1,3700;6,0700
14,2980;-0,1100;-6,1300;-1,0300;6,2200
14,3094;0,5200;-6,1300;-0,4300;6,1700
14,3182;1,1900;-6,0300;0,0600;6,1500
14,3289;2,0300;-5,9900;0,3900;6,3400
14,3400;2,7200;-5,9300;0,8700;6,5800
14,3501;3,4000;-5,9500;1,5600;7,0300
14,3609;4,2300;-5,8200;1,9400;7,4500
14,3708;4,9100;-5,8200;2,4400;8,0000
14,3803;5,2700;-6,0300;2,3700;8,3500
14,3903;5,8600;-5,9100;2,5200;8,7000
14,3994;6,3500;-5,6800;2,4300;8,8600
14,4089;6,7400;-5,6800;2,3500;9,1200
14,4183;7,1300;-5,8700;2,3000;9,5200
14,4297;7,3200;-5,5400;2,3000;9,4600
14,4392;7,9300;-5,5800;2,2300;9,9500
14,4484;7,9400;-5,2800;1,5100;9,6500
14,4597;8,2100;-4,8500;1,1200;9,6000
14,4687;8,5000;-4,9100;1,0400;9,8700
14,4801;8,7000;-4,2600;0,4000;9,7000
14,4911;8,8800;-3,9300;-0,1400;9,7100
14,5016;8,7800;-3,2600;-0,0800;9,3700
14,5113;9,0300;-2,7900;-0,7300;9,4800
14,5204;8,9100;-2,5400;-0,8100;9,3000
14,5293;8,9500;-1,7900;-0,8000;9,1600
14,5381;8,7600;-1,1400;-0,8900;8,8800
14,5476;8,5300;-0,6800;-0,8400;8,6000
14,5573;8,3900;0,1500;-1,0000;8,4500
14,5686;8,4500;0,8100;-1,1100;8,5600
14,5787;8,2000;1,5300;-0,9700;8,4000
14,5902;7,9900;2,4000;-0,4400;8,3500
14,6008;7,7300;3,1300;-0,2300;8,3400
14,6098;7,4800;3,9600;-0,1300;8,4600
14,6199;7,3500;4,3400;0,1000;8,5400
14,6289;7,0700;4,9100;0,4200;8,6200
14,6375;7,0800;5,3800;0,5800;8,9100
14,6489;6,5600;5,9500;0,8200;8,8900
14,6584;6,6000;6,4000;0,9300;9,2400
14,6675;6,3500;6,5300;1,1900;9,1900
14,6763;5,9700;6,8000;1,0400;9,1100
14,6867;5,8600;6,6700;1,1600;8,9500
14,6966;5,5600;6,8900;0,8300;8,8900
14,7051;5,3300;6,6700;0,5400;8,5600
14,7158;5,2100;6,7800;0,5700;8,5700
14,7251;5,0200;6,4800;0,1300;8,2000
14,7359;4,5800;6,0000;-0,1700;7,5500
14,7459;4,6300;5,8900;-0,8600;7,5400
14,7560;4,1200;5,3500;-0,8900;6,8100
14,7658;3,9300;4,8700;-1,4300;6,4200
14,7764;3,9000;4,1800;-1,9300;6,0300
14,7878;3,6300;3,8500;-2,3200;5,7800
14,7987;3,4800;3,1000;-2,6400;5,3600
14,8074;3,3400;2,7200;-2,7900;5,1300
14,8174;3,1600;1,8800;-2,7700;4,6000
14,8266;3,1500;1,5900;-2,6800;4,4300
14,8354;2,9900;1,0200;-2,4700;4,0100
14,8445;2,6200;0,6200;-2,3600;3,5800
14,8538;2,4100;0,2200;-2,2800;3,3200
14,8651;2,3000;-0,1900;-1,8300;2,9500
14,8759;1,9100;-0,5600;-1,4400;2,4600
14,8869;1,7200;-1,1800;-0,9100;2,2800
14,8975;1,5600;-1,2200;-0,2500;2,0000
14,9070;1,0600;-1,6800;0,4000;2,0300
14,9167;1,0600;-1,8900;0,6400;2,2600
14,9265;0,7500;-1,9200;1,4600;2,5300
14,9359;0,3300;-2,0200;1,9000;2,7900
14,9456;-0,0500;-1,9300;2,0700;2,8300
14,9564;-0,3400;-2,0600;2,0900;2,9500
14,9652;-0,7500;-2,1600;2,3200;3,2600
14,9745;-0,9300;-2,0600;2,5900;3,4400
14,9844;-1,4200;-2,0500;2,8300;3,7700
14,9950;-1,9800;-2,2100;2,7800;4,0700
15,0054;-2,2700;-2,2600;2,4900;4,0600
15,0161;-2,8300;-2,2500;2,3100;4,2900
15,0249;-3,4200;-2,5100;1,6500;4,5500
15,0339;-3,7600;-2,3300;1,5400;4,6800
15,0434;-4,2000;-2,6800;1,1700;5,1200
15,0527;-4,5000;-2,8000;0,6800;5,3400
15,0635;-5,2600;-2,6200;0,4300;5,8900
15,0749;-5,7900;-2,9400;0,0100;6,4900
15,0855;-6,1300;-2,9800;-0,1400;6,8200
15,0941;-6,7500;-3,0000;-0,8300;7,4300
15,1035;-7,0600;-3,2300;-0,9200;7,8200
15,1144;-7,8300;-3,2300;-1,1500;8,5500
15,1257;-8,2300;-3,3600;-1,2000;8,9700
15,1360;-8,7400;-3,5600;-1,1400;9,5100
15,1455;-8,8800;-3,4800;-1,0400;9,5900
15,1551;-9,3500;-3,6400;-0,6100;10,0500
15,1655;-9,8200;-3,8500;-0,7200;10,5700
15,1766;-10,2000;-3,7500;-0,3800;10,8700
15,1861;-10,3400;-3,9800;-0,2900;11,0800
15,1952;-10,6500;-4,2200;-0,0100;11,4600
15,2037;-10,6300;-3,9900;0,2100;11,3600
15,2126;-10,5800;-4,2200;0,6000;11,4100
15,2236;-10,7100;-4,4000;0,6800;11,6000
15,2340;-10,6900;-4,3900;0,8100;11,5800
15,2455;-10,4800;-4,4600;1,0200;11,4400
15,2542;-10,4000;-4,5800;0,7700;11,3900
15,2638;-9,9500;-4,5300;1,1300;10,9900
15,2747;-9,9300;-4,6300;0,5800;10,9700
15,2851;-9,3700;-4,6600;0,5500;10,4800
15,2938;-9,2100;-4,5300;0,6300;10,2800
15,3036;-8,6900;-4,7400;-0,0700;9,9000
15,3140;-8,2300;-4,8100;-0,4600;9,5400
15,3245;-7,9600;-4,7800;-0,6000;9,3000
15,3344;-7,2500;-4,7500;-0,8500;8,7100
15,3434;-6,7100;-4,8100;-1,2700;8,3500
15,3548;-6,2100;-4,6600;-1,6700;7,9400
15,3647;-5,6200;-4,5600;-1,6700;7,4300
15,3754;-5,1100;-4,5700;-1,9100;7,1200
15,3855;-4,5600;-4,6900;-2,1400;6,8800
15,3942;-3,8300;-4,5600;-2,0400;6,2900
15,4035;-3,2400;-4,5400;-1,9100;5,9000
15,4121;-2,9300;-4,5700;-1,9900;5,7800
15,4212;-2,4200;-4,4900;-1,9100;5,4500
15,4303;-1,7900;-4,6000;-1,6000;5,1900
15,4401;-1,1200;-4,4400;-1,4000;4,7900
15,4495;-0,6700;-4,4700;-1,3000;4,7000
15,4591;0,0800;-4,3500;-0,5700;4,3900
15,4701;0,6000;-4,2900;-0,5600;4,3700
15,4786;1,0900;-4,4800;0,0700;4,6100
15,4874;1,4100;-4,1600;0,2300;4,4000
15,4984;1,9700;-4,3700;0,7800;4,8600
15,5085;2,4700;-4,1600;0,9600;4,9300
15,5183;2,5500;-4,0300;1,3700;4,9600
15,5276;3,0800;-3,8800;1,3900;5,1500
15,5377;3,2800;-4,0600;1,4300;5,4100
15,5469;3,7700;-3,7700;1,7800;5,6200
15,5579;3,8700;-3,7900;1,8400;5,7200
15,5689;4,3000;-3,8000;1,6400;5,9700
15,5784;4,3300;-3,6000;1,7600;5,9000
15,5870;4,5800;-3,3900;1,5300;5,9000
15,5981;4,7300;-3,4400;1,4400;6,0200
15,6075;4,9000;-3,0200;0,8800;5,8200
15,6180;4,9500;-3,1100;1,0100;5,9300
15,6291;4,8300;-2,8000;0,6600;5,6200
15,6400;4,9200;-2,5100;0,5000;5,5500
15,6510;4,7100;-2,3000;-0,0300;5,2400
15,6610;4,6300;-1,7100;-0,1100;4,9400
15,6720;4,7600;-1,3500;-0,1100;4,9500
15,6819;4,7300;-1,0400;-0,3300;4,8500
15,6912;4,5700;-0,9700;-0,5900;4,7100
15,7012;4,3700;-0,3900;-0,6300;4,4300
15,7107;4,2700;-0,2300;-0,3000;4,2900
15,7215;4,1500;0,1300;-0,4000;4,1700
15,7325;3,9200;0,6400;-0,6300;4,0200
15,7414;3,7000;0,7200;-0,4400;3,7900
15,7504;3,7200;0,9600;-0,1900;3,8500
15,7600;3,3800;1,5600;-0,2600;3,7300
15,7699;3,4000;1,6100;-0,0100;3,7600
15,7813;3,1700;2,0100;0,2200;3,7600
15,7926;2,9700;2,0900;0,0400;3,6300
15,8040;2,8000;2,1300;0,2100;3,5200
15,8147;2,6800;2,3600;0,5700;3,6200
15,8252;2,5100;2,3100;0,1700;3,4200
15,8345;2,2000;2,2900;0,1900;3,1800
15,8442;2,0200;2,2500;0,5100;3,0700
15,8527;2,0200;2,3400;0,3900;3,1200
15,8637;1,9600;2,2000;0,2000;2,9500
15,8730;1,7200;2,1200;0,3100;2,7500
15,8817;1,4100;2,2300;-0,1100;2,6400
15,8912;1,3000;2,0400;-0,3200;2,4400
15,9007;1,3500;1,8400;-0,0200;2,2800
15,9113;1,3500;1,4900;-0,2200;2,0200
15,9198;1,3100;1,5100;-0,4600;2,0500
15,9290;1,0400;1,3200;-0,4200;1,7300
15,9402;0,9900;1,0500;-0,7400;1,6200
15,9513;0,9000;0,7500;-0,6700;1,3500
15,9617;0,6700;0,5700;-0,5600;1,0400
15,9719;0,5600;0,4800;-0,4200;0,8500
15,9810;0,6800;0,3000;-0,6600;0,9900
15,9921;0,6000;0,3700;-0,7400;1,0200
16,0029;0,6500;0,1000;-0,6600;0,9300
16,0130;0,3500;0,0800;-0,4700;0,5900
16,0219;0,5300;0,0900;-0,2400;0,5900
16,0311;0,2700;-0,0600;-0,1200;0,3000
16,0407;0,3100;-0,2700;-0,0400;0,4100
16,0502;0,3100;-0,2500;0,1300;0,4200
16,0589;0,0700;-0,0600;0,1000;0,1400
16,0686;0,3000;-0,3700;0,1600;0,5000
16,0785;0,2600;-0,3100;0,1700;0,4400
16,0878;0,2200;-0,1700;0,2500;0,3700
16,0975;-0,1500;-0,0800;0,3000;0,3400
16,1070;0,0400;-0,0800;0,4400;0,4500
16,1166;0,0200;-0,0900;0,0400;0,1000
16,1270;0,0700;-0,0900;0,2600;0,2800
16,1370;-0,1900;-0,1800;-0,0200;0,2600
16,1461;-0,2200;-0,2700;-0,0100;0,3500
16,1569;0,0200;-0,0500;0,3200;0,3200
16,1670;-0,1700;-0,2300;0,0300;0,2900
16,1769;-0,2200;0,0500;0,0800;0,2400
16,1875;-0,1900;-0,1600;-0,1200;0,2800
16,1983;0,0400;-0,1700;0,0100;0,1700
16,2093;0,0100;0,1700;-0,2400;0,2900
16,2202;0,0900;-0,1200;0,0400;0,1600
16,2307;0,1100;0,0300;0,2300;0,2600
16,2414;-0,1700;-0,1500;0,0900;0,2400
16,2504;0,1500;0,1700;0,0800;0,2400
16,2610;0,1300;-0,1700;0,0300;0,2200
16,2702;0,1500;0,0700;-0,0900;0,1900
16,2795;0,0900;0,1200;0,1400;0,2100
16,2884;-0,0400;-0,0700;-0,0600;0,1000
16,2981;-0,0900;-0,1700;-0,0800;0,2100
16,3066;0,1400;-0,1600;0,0200;0,2100
16,3171;-0,0300;-0,1500;0,2400;0,2800
16,3278;-0,0000;0,0900;0,1200;0,1500
16,3387;0,0700;0,0100;0,0900;0,1100
16,3476;0,0700;0,1400;-0,1900;0,2500
16,3580;0,0700;0,0500;0,1500;0,1700
16,3690;0,0400;0,0300;-0,0400;0,0600
16,3776;0,0000;-0,1000;0,0600;0,1200
16,3867;0,0900;-0,1000;0,0300;0,1400
16,3960;-0,0400;0,1700;0,1400;0,2200
16,4059;-0,0800;0,1600;-0,2300;0,2900
16,4149;0,1400;-0,0200;-0,2000;0,2400
16,4250;0,1200;0,1000;-0,1100;0,1900
16,4345;0,0800;0,0800;-0,1500;0,1900
16,4450;-0,1200;-0,0800;0,0900;0,1700
16,4551;-0,1600;-0,1100;-0,1900;0,2700
16,4657;0,1500;0,0900;-0,2000;0,2700
16,4749;0,1600;0,1600;0,0100;0,2300
16,4855;-0,0800;0,1700;-0,2200;0,2900
16,4962;0,0500;-0,0500;0,1500;0,1700
16,5069;-0,1700;-0,1500;-0,0900;0,2400
16,5156;-0,0400;-0,0600;-0,1000;0,1200
16,5269;0,0700;-0,1500;0,0500;0,1700
16,5372;-0,0500;0,1700;0,2400;0,3000
16,5465;0,1100;-0,0700;-0,1100;0,1700
16,5563;0,1400;0,1200;-0,1400;0,2300
16,5663;-0,1300;-0,0900;-0,0700;0,1700
16,5764;0,0700;0,1600;0,1400;0,2200
16,5856;-0,0400;-0,0000;0,2200;0,2200
16,5949;-0,1100;0,1200;-0,1700;0,2400
16,6045;-0,0500;0,0300;-0,2400;0,2500
16,6154;-0,0100;0,0900;-0,1000;0,1300
16,6252;0,1400;-0,1500;-0,0900;0,2200
16,6338;0,0900;-0,1400;0,1200;0,2100
16,6436;-0,1700;-0,0500;0,0900;0,2000
16,6527;-0,1600;0,1300;0,1200;0,2400
16,6613;0,1700;0,1400;-0,0500;0,2300
16,6727;0,0200;0,0700;-0,0400;0,0800
16,6821;0,0400;0,0300;0,2200;0,2300
16,6922;-0,0500;-0,1600;-0,2300;0,2800
16,7018;0,1200;0,1500;-0,2400;0,3100
16,7104;0,0200;0,0600;-0,2400;0,2500
16,7216;0,0300;0,0400;0,1600;0,1700
16,7329;-0,0900;0,1200;0,0100;0,1500
16,7420;0,1000;-0,0900;0,1000;0,1700
16,7518;-0,1000;0,0400;0,0800;0,1300
16,7614;-0,1300;0,0600;0,1600;0,2100
16,7704;0,0300;0,0900;0,0100;0,1000
16,7809;0,1200;-0,1400;-0,0900;0,2100
16,7917;-0,0700;0,0800;-0,1900;0,2200
16,8025;-0,0700;0,1400;-0,0400;0,1600
16,8130;-0,1200;0,0400;-0,1500;0,2000
16,8216;0,0400;-0,1200;0,2100;0,2500
16,8308;0,0900;0,1500;0,1300;0,2200
16,8408;-0,1300;-0,1400;-0,1100;0,2200
16,8514;0,0100;-0,0900;0,0100;0,0900
16,8611;0,0100;0,1200;-0,0200;0,1200
16,8709;-0,1400;0,0300;0,0500;0,1500
16,8819;0,0100;-0,0600;0,2200;0,2300
16,8905;-0,0800;0,1100;-0,1100;0,1700
16,8998;-0,1100;0,0500;0,0600;0,1300
16,9092;0,1700;-0,1300;0,0000;0,2100
16,9207;-0,1400;-0,0900;0,2300;0,2800
16,9299;-0,0500;0,1100;-0,1400;0,1800
16,9385;0,0400;0,1100;0,0700;0,1400
16,9482;-0,0300;-0,1500;-0,2000;0,2500
16,9587;-0,1700;0,0100;0,0200;0,1700
16,9677;0,1300;0,0700;0,2300;0,2700
16,9787;-0,0900;-0,0600;0,1100;0,1500
16,9878;-0,0300;-0,1500;-0,2300;0,2800
16,9984;0,1400;-0,0300;0,2400;0,2800
17,0074;0,1600;0,1500;0,0200;0,2200
17,0185;0,1500;0,0800;0,0400;0,1700
17,0276;-0,0300;-0,1000;0,2200;0,2400
17,0383;0,0900;0,1200;0,0400;0,1600
17,0493;0,1200;0,0600;-0,1400;0,1900
17,0586;-0,1100;-0,0700;-0,0400;0,1400
17,0674;0,1600;-0,0800;0,1200;0,2200
17,0776;-0,1400;-0,1100;-0,0500;0,1800
17,0876;0,0600;-0,0300;-0,1700;0,1800
17,0976;-0,0900;-0,0500;-0,0600;0,1200
17,1084;-0,1000;-0,0800;-0,2000;0,2400
17,1183;-0,1300;0,1300;-0,2000;0,2700
17,1283;0,1500;0,0900;-0,1900;0,2600
17,1382;-0,1300;-0,0000;0,0000;0,1300
17,1481;0,1400;0,1600;-0,0900;0,2300
17,1578;-0,1200;0,0600;-0,1600;0,2100
17,1668;-0,0600;0,1600;0,1200;0,2100
17,1762;-0,1000;0,1100;0,0600;0,1600
17,1855;0,1700;0,0500;0,1600;0,2400
17,1947;-0,1400;0,0700;-0,1700;0,2300
17,2056;0,1300;0,1000;0,0600;0,1700
17,2144;-0,0700;0,0900;-0,1200;0,1700
17,2235;0,1600;0,1300;-0,0000;0,2100
17,2336;0,0900;-0,0600;-0,0300;0,1100
17,2431;-0,0800;-0,0500;0,0400;0,1000
17,2523;0,0000;-0,0900;0,0400;0,1000
17,2619;-0,1200;0,1500;0,2100;0,2800
17,2719;-0,0300;0,1400;0,0600;0,1600
17,2824;-0,1700;-0,0200;-0,0700;0,1800
17,2938;0,0600;-0,0300;0,1500;0,1600
17,3049;0,0300;-0,1300;-0,1700;0,2200
17,3147;-0,0800;0,1700;0,1400;0,2300
17,3245;-0,1700;0,0600;0,0400;0,1800
17,3343;0,1500;0,1600;-0,1200;0,2500
17,3435;-0,1300;0,0500;0,1300;0,1900
17,3549;-0,0600;0,0000;-0,1900;0,2000
17,3636;-0,1700;0,0900;-0,2300;0,3000
17,3727;-0,0400;0,1400;-0,1100;0,1800
17,3832;-0,0300;0,1200;0,0000;0,1200
17,3934;0,0100;-0,0500;0,0700;0,0900
17,4028;-0,0600;0,0000;-0,0900;0,1100
17,4141;-0,0900;0,1600;0,0400;0,1900
17,4238;0,1000;0,0000;0,2400;0,2600
17,4341;-0,0800;0,1100;0,2500;0,2800
17,4429;-0,0600;0,0100;0,1100;0,1300
17,4540;-0,0000;0,1200;-0,1000;0,1600
17,4629;-0,0800;-0,1500;-0,0100;0,1700
17,4725;0,0800;-0,1700;0,1500;0,2400
17,4837;-0,1500;-0,1400;0,1900;0,2800
17,4950;-0,0600;-0,0200;0,2300;0,2400
17,5062;-0,0300;-0,0500;-0,0600;0,0800
17,5172;-0,0800;0,1600;-0,0800;0,2000
17,5264;0,1200;0,1700;-0,0800;0,2200
17,5350;-0,0500;-0,1300;0,1400;0,2000
17,5449;-0,0300;0,1200;0,2300;0,2600
17,5536;-0,0100;0,0000;0,0300;0,0300
17,5649;0,1200;0,1200;-0,0300;0,1700
17,5735;-0,1000;-0,0500;0,0800;0,1400
17,5829;0,1200;0,1000;-0,0400;0,1600
17,5921;0,1600;-0,1700;0,0400;0,2400
17,6006;-0,0800;-0,0100;-0,1600;0,1800
17,6106;-0,1200;-0,0600;-0,2000;0,2400
17,6193;0,1000;-0,0900;-0,0500;0,1400
17,6305;-0,0700;-0,0700;-0,1200;0,1600
17,6411;-0,1000;-0,0300;-0,1700;0,2000
17,6507;-0,1500;-0,0000;0,2300;0,2700
17,6617;0,0400;0,0100;0,1000;0,1100
17,6726;0,1500;0,0800;-0,0600;0,1800
17,6821;0,1300;0,1100;0,2500;0,3000
17,6931;0,0300;0,1600;-0,2000;0,2600
17,7044;-0,0200;0,0600;-0,0800;0,1000
17,7148;0,1700;-0,0900;0,1900;0,2700
17,7243;0,0600;0,0300;0,2300;0,2400
17,7355;0,1600;-0,0200;0,1500;0,2200
17,7469;0,0700;-0,0900;-0,1600;0,2000
17,7564;0,0700;-0,0600;0,0300;0,1000
17,7652;0,0700;-0,0900;-0,2100;0,2400
17,7763;-0,1300;0,0100;-0,2200;0,2600
17,7868;-0,0900;-0,1500;0,1800;0,2500
17,7960;-0,1500;0,0200;-0,2500;0,2900
17,8062;0,1500;-0,0300;-0,2000;0,2500
17,8156;0,1700;-0,1700;-0,2000;0,3100
17,8268;0,0400;-0,0800;0,1100;0,1400
17,8364;-0,1200;0,1600;0,0600;0,2100
17,8455;-0,1300;0,0300;-0,1400;0,1900
17,8541;-0,0200;-0,1500;-0,0400;0,1600
17,8636;-0,0400;0,0300;0,2300;0,2400
17,8751;-0,1100;0,0700;-0,1400;0,1900
17,8842;-0,1400;-0,1300;-0,2200;0,2900
17,8941;0,0500;-0,0300;0,0700;0,0900
17,9055;0,1000;-0,1000;-0,2000;0,2400
17,9140;-0,1500;0,0100;0,0300;0,1500
17,9234;-0,0700;0,1100;-0,1200;0,1800
17,9344;-0,0700;-0,0900;-0,2300;0,2600
17,9432;0,0100;-0,1300;0,0800;0,1500
17,9545;0,0400;-0,1300;0,1300;0,1900
17,9655;-0,0300;0,0400;-0,0900;0,1000
17,9744;0,1300;-0,1500;-0,1700;0,2600
